ACCELEROMETER X (m/s²),ACCELEROMETER Y (m/s²),ACCELEROMETER Z (m/s²),PROXIMITY (m),LOCATION Latitude : ,LOCATION Longitude : ,LOCATION Altitude ( m),LOCATION Altitude-google ( m),LOCATION Speed ( Kmh),LOCATION Accuracy ( m),LOCATION ORIENTATION (°),Satellites in range,Time since start in ms ,YYYY-MO-DD HH-MI-SS_SSS
1.101333,5.904102,8.221689,8.0,49.828587,24.04617,345.0,NaN,0.648,19.0,0.0,6 / 11,26,2020-03-17 14:27:39:878
0.656011,5.085284,9.279925,8.0,49.828587,24.04617,345.0,NaN,0.648,19.0,0.0,0 / 0,526,2020-03-17 14:27:40:378
2.001553,5.631162,7.469909,8.0,49.828587,24.04617,345.0,NaN,0.648,19.0,0.0,0 / 0,1026,2020-03-17 14:27:40:878
1.810017,5.406108,8.403648,8.0,49.828587,24.04617,345.0,NaN,0.648,19.0,0.0,0 / 0,1526,2020-03-17 14:27:41:378
2.03986,5.707777,7.867347,8.0,49.828587,24.04617,345.0,NaN,0.648,19.0,0.0,0 / 0,2026,2020-03-17 14:27:41:878
1.867477,5.722142,7.575254,8.0,49.828587,24.04617,345.0,NaN,0.648,19.0,0.0,0 / 0,2527,2020-03-17 14:27:42:379
1.771709,5.750873,7.723695,8.0,49.828587,24.04617,345.0,NaN,0.648,19.0,0.0,0 / 0,3026,2020-03-17 14:27:42:878
1.891419,5.770026,7.560889,8.0,49.828587,24.04617,345.0,NaN,0.648,19.0,0.0,0 / 0,3526,2020-03-17 14:27:43:378
2.106898,5.956774,7.412449,8.0,49.828587,24.04617,345.0,NaN,0.648,19.0,0.0,0 / 0,4027,2020-03-17 14:27:43:879
1.493982,5.726931,7.551312,8.0,49.828587,24.04617,345.0,NaN,0.648,19.0,0.0,0 / 0,4526,2020-03-17 14:27:44:378
1.690306,5.688624,7.762002,8.0,49.828587,24.04617,345.0,NaN,0.648,19.0,0.0,0 / 0,5027,2020-03-17 14:27:44:879
0.718261,6.823475,6.933608,8.0,49.828587,24.04617,345.0,NaN,0.648,19.0,0.0,0 / 0,5526,2020-03-17 14:27:45:378
1.723825,6.713342,6.483498,8.0,49.828587,24.04617,345.0,NaN,0.648,19.0,0.0,0 / 0,6026,2020-03-17 14:27:45:878
1.417368,6.129156,6.746861,8.0,49.828587,24.04617,345.0,NaN,0.648,19.0,0.0,0 / 0,6526,2020-03-17 14:27:46:378
4.098873,7.062895,5.554548,8.0,49.828587,24.04617,345.0,NaN,0.648,19.0,0.0,0 / 1,7026,2020-03-17 14:27:46:878
2.806004,6.675035,6.454768,8.0,49.828587,24.04617,345.0,NaN,0.648,19.0,0.0,0 / 1,7526,2020-03-17 14:27:47:378
1.163582,6.924032,6.325481,8.0,49.828587,24.04617,345.0,NaN,0.648,19.0,0.0,0 / 1,8026,2020-03-17 14:27:47:878
1.340753,6.655881,6.909666,8.0,49.828587,24.04617,345.0,NaN,0.648,19.0,0.0,0 / 1,8526,2020-03-17 14:27:48:378
0.943315,6.59842,7.038953,8.0,49.828587,24.04617,345.0,NaN,0.648,19.0,0.0,0 / 2,9027,2020-03-17 14:27:48:879
0.962469,6.531382,7.149087,8.0,49.828587,24.04617,345.0,NaN,0.648,19.0,0.0,0 / 2,9526,2020-03-17 14:27:49:378
1.082179,6.435614,7.192182,8.0,49.828587,24.04617,345.0,NaN,0.648,19.0,0.0,0 / 2,10026,2020-03-17 14:27:49:878
1.053449,6.301539,7.374141,8.0,49.828587,24.04617,345.0,NaN,0.648,19.0,0.0,0 / 2,10526,2020-03-17 14:27:50:378
1.005565,6.44998,7.603985,8.0,49.828587,24.04617,345.0,NaN,0.648,19.0,0.0,0 / 3,11026,2020-03-17 14:27:50:878
1.819593,6.454768,7.565677,8.0,49.828587,24.04617,345.0,NaN,0.648,19.0,0.0,4 / 4,11527,2020-03-17 14:27:51:379
-0.454898,4.022259,11.09473,8.0,49.828632,24.046213,334.5,NaN,,21.439,,4 / 4,12026,2020-03-17 14:27:51:878
0.086191,3.974375,8.628703,8.0,49.828632,24.046213,334.5,NaN,,21.439,,4 / 4,12526,2020-03-17 14:27:52:378
1.273715,4.611233,8.738836,8.0,49.8286,24.046192,353.0,NaN,4.932,12.5,232.9,4 / 4,13026,2020-03-17 14:27:52:878
1.541866,5.094861,8.001422,8.0,49.8286,24.046192,353.0,NaN,4.932,12.5,232.9,4 / 4,13526,2020-03-17 14:27:53:378
1.130063,5.434838,8.796297,8.0,49.8286,24.046192,353.0,NaN,4.932,12.5,232.9,4 / 4,14026,2020-03-17 14:27:53:878
0.062249,5.942409,7.896077,8.0,49.8286,24.046192,353.0,NaN,4.932,12.5,232.9,4 / 4,14526,2020-03-17 14:27:54:378
0.68953,6.66067,7.469909,8.0,49.8286,24.046192,353.0,NaN,4.932,12.5,232.9,4 / 4,15026,2020-03-17 14:27:54:878
-0.679953,7.292739,6.33027,8.0,49.8286,24.046192,353.0,NaN,4.932,12.5,232.9,4 / 4,15526,2020-03-17 14:27:55:378
-4.58729,4.606444,3.596091,8.0,49.8286,24.046192,353.0,NaN,4.932,12.5,232.9,4 / 4,16026,2020-03-17 14:27:55:878
-3.801992,-1.225831,11.93749,8.0,49.8286,24.046192,353.0,NaN,4.932,12.5,232.9,4 / 4,16526,2020-03-17 14:27:56:378
-0.622492,-1.235408,9.844957,8.0,49.8286,24.046192,353.0,NaN,4.932,12.5,232.9,4 / 4,17026,2020-03-17 14:27:56:878
-0.062249,-0.11971,9.744401,8.0,49.8286,24.046192,353.0,NaN,4.932,12.5,232.9,4 / 4,17526,2020-03-17 14:27:57:378
-0.114922,-0.014365,9.763555,8.0,49.8286,24.046192,353.0,NaN,4.932,12.5,232.9,4 / 4,18026,2020-03-17 14:27:57:878
-0.043096,-0.081403,9.773131,8.0,49.8286,24.046192,353.0,NaN,4.932,12.5,232.9,4 / 4,18526,2020-03-17 14:27:58:378
-0.047884,-0.124498,9.749189,8.0,49.8286,24.046192,353.0,NaN,4.932,12.5,232.9,4 / 4,19026,2020-03-17 14:27:58:878
-0.105345,-0.100556,9.739613,8.0,49.8286,24.046192,353.0,NaN,4.932,12.5,232.9,4 / 4,19526,2020-03-17 14:27:59:378
-0.09098,-0.105345,9.730036,8.0,49.8286,24.046192,353.0,NaN,4.932,12.5,232.9,4 / 4,20026,2020-03-17 14:27:59:878
-0.038307,-0.086191,9.749189,8.0,49.8286,24.046192,353.0,NaN,4.932,12.5,232.9,4 / 4,20526,2020-03-17 14:28:00:378
-0.067038,-0.124498,9.749189,8.0,49.8286,24.046192,353.0,NaN,4.932,12.5,232.9,4 / 4,21027,2020-03-17 14:28:00:879
-0.067038,-0.095768,9.773131,8.0,49.8286,24.046192,353.0,NaN,4.932,12.5,232.9,4 / 4,21527,2020-03-17 14:28:01:379
-0.043096,-0.086191,9.749189,8.0,49.8286,24.046192,353.0,NaN,4.932,12.5,232.9,4 / 4,22026,2020-03-17 14:28:01:878
-0.11971,-0.033519,9.773131,8.0,49.8286,24.046192,353.0,NaN,4.932,12.5,232.9,4 / 4,22526,2020-03-17 14:28:02:378
-0.095768,-0.100556,9.768343,8.0,49.8286,24.046192,353.0,NaN,4.932,12.5,232.9,4 / 4,23026,2020-03-17 14:28:02:878
-0.081403,-0.114922,9.763555,8.0,49.8286,24.046192,353.0,NaN,4.932,12.5,232.9,4 / 4,23526,2020-03-17 14:28:03:378
-0.071826,-0.110133,9.787497,8.0,49.8286,24.046192,353.0,NaN,4.932,12.5,232.9,4 / 4,24026,2020-03-17 14:28:03:878
-0.095768,-0.105345,9.768343,8.0,49.8286,24.046192,353.0,NaN,4.932,12.5,232.9,4 / 4,24526,2020-03-17 14:28:04:378
-0.076614,-0.086191,9.77792,8.0,49.8286,24.046192,353.0,NaN,4.932,12.5,232.9,4 / 4,25026,2020-03-17 14:28:04:878
-0.038307,-0.138864,9.768343,8.0,49.8286,24.046192,353.0,NaN,4.932,12.5,232.9,4 / 4,25527,2020-03-17 14:28:05:379
-0.076614,-0.081403,9.77792,8.0,49.8286,24.046192,353.0,NaN,4.932,12.5,232.9,4 / 4,26027,2020-03-17 14:28:05:879
-0.09098,-0.062249,9.811439,8.0,49.8286,24.046192,353.0,NaN,4.932,12.5,232.9,4 / 4,26526,2020-03-17 14:28:06:378
-0.052672,-0.110133,9.749189,8.0,49.8286,24.046192,353.0,NaN,4.932,12.5,232.9,4 / 4,27026,2020-03-17 14:28:06:878
-0.100556,-0.100556,9.758766,8.0,49.8286,24.046192,353.0,NaN,4.932,12.5,232.9,4 / 4,27526,2020-03-17 14:28:07:378
-0.062249,-0.100556,9.773131,8.0,49.8286,24.046192,353.0,NaN,4.932,12.5,232.9,4 / 4,28026,2020-03-17 14:28:07:878
-0.09098,-0.09098,9.801862,8.0,49.8286,24.046192,353.0,NaN,4.932,12.5,232.9,4 / 4,28526,2020-03-17 14:28:08:378
-0.057461,-0.100556,9.753978,8.0,49.8286,24.046192,353.0,NaN,4.932,12.5,232.9,4 / 4,29026,2020-03-17 14:28:08:878
-0.052672,-0.071826,9.758766,8.0,49.8286,24.046192,353.0,NaN,4.932,12.5,232.9,4 / 4,29526,2020-03-17 14:28:09:378
-0.047884,-0.09098,9.773131,8.0,49.8286,24.046192,353.0,NaN,4.932,12.5,232.9,4 / 4,30026,2020-03-17 14:28:09:878
-0.071826,-0.095768,9.768343,8.0,49.8286,24.046192,353.0,NaN,4.932,12.5,232.9,4 / 4,30527,2020-03-17 14:28:10:379
-0.052672,-0.110133,9.758766,8.0,49.8286,24.046192,353.0,NaN,4.932,12.5,232.9,4 / 4,31026,2020-03-17 14:28:10:878
-0.067038,-0.11971,9.763555,8.0,49.8286,24.046192,353.0,NaN,4.932,12.5,232.9,4 / 4,31526,2020-03-17 14:28:11:378
-0.100556,-0.105345,9.787497,8.0,49.8286,24.046192,353.0,NaN,4.932,12.5,232.9,4 / 4,32027,2020-03-17 14:28:11:879
-0.047884,-0.081403,9.787497,8.0,49.8286,24.046192,353.0,NaN,4.932,12.5,232.9,4 / 4,32526,2020-03-17 14:28:12:378
-0.052672,-0.114922,9.744401,8.0,49.8286,24.046192,353.0,NaN,4.932,12.5,232.9,4 / 4,33026,2020-03-17 14:28:12:878
-0.052672,-0.105345,9.739613,8.0,49.8286,24.046192,353.0,NaN,4.932,12.5,232.9,4 / 4,33526,2020-03-17 14:28:13:378
-0.071826,-0.124498,9.792285,8.0,49.8286,24.046192,353.0,NaN,4.932,12.5,232.9,4 / 4,34026,2020-03-17 14:28:13:878
-0.057461,-0.11971,9.77792,8.0,49.8286,24.046192,353.0,NaN,4.932,12.5,232.9,4 / 4,34526,2020-03-17 14:28:14:378
-0.081403,-0.100556,9.77792,8.0,49.8286,24.046192,353.0,NaN,4.932,12.5,232.9,4 / 4,35027,2020-03-17 14:28:14:879
-0.09098,-0.057461,9.720459,8.0,49.8286,24.046192,353.0,NaN,4.932,12.5,232.9,4 / 4,35526,2020-03-17 14:28:15:378
-0.086191,-0.114922,9.749189,8.0,49.8286,24.046192,353.0,NaN,4.932,12.5,232.9,4 / 4,36026,2020-03-17 14:28:15:878
-0.057461,-0.11971,9.749189,8.0,49.8286,24.046192,353.0,NaN,4.932,12.5,232.9,4 / 4,36526,2020-03-17 14:28:16:378
-0.038307,-0.095768,9.782708,8.0,49.8286,24.046192,353.0,NaN,4.932,12.5,232.9,4 / 4,37026,2020-03-17 14:28:16:878
-0.062249,-0.114922,9.758766,8.0,49.8286,24.046192,353.0,NaN,4.932,12.5,232.9,4 / 4,37526,2020-03-17 14:28:17:378
-0.052672,-0.110133,9.739613,8.0,49.8286,24.046192,353.0,NaN,4.932,12.5,232.9,4 / 4,38026,2020-03-17 14:28:17:878
-0.081403,-0.095768,9.768343,8.0,49.8286,24.046192,353.0,NaN,4.932,12.5,232.9,4 / 4,38526,2020-03-17 14:28:18:378
-0.143652,-0.100556,9.768343,8.0,49.8286,24.046192,353.0,NaN,4.932,12.5,232.9,4 / 4,39026,2020-03-17 14:28:18:878
-0.038307,-0.081403,9.763555,8.0,49.8286,24.046192,353.0,NaN,4.932,12.5,232.9,4 / 4,39527,2020-03-17 14:28:19:379
-0.076614,-0.124498,9.773131,8.0,49.8286,24.046192,353.0,NaN,4.932,12.5,232.9,4 / 4,40027,2020-03-17 14:28:19:879
-0.081403,-0.11971,9.739613,8.0,49.8286,24.046192,353.0,NaN,4.932,12.5,232.9,4 / 4,40526,2020-03-17 14:28:20:378
-0.086191,-0.052672,9.758766,8.0,49.8286,24.046192,353.0,NaN,4.932,12.5,232.9,4 / 4,41026,2020-03-17 14:28:20:878
-0.100556,-0.110133,9.753978,8.0,49.8286,24.046192,353.0,NaN,4.932,12.5,232.9,4 / 4,41526,2020-03-17 14:28:21:378
-0.076614,-0.100556,9.758766,8.0,49.8286,24.046192,353.0,NaN,4.932,12.5,232.9,4 / 4,42026,2020-03-17 14:28:21:878
-0.057461,-0.129287,9.749189,8.0,49.8286,24.046192,353.0,NaN,4.932,12.5,232.9,4 / 4,42526,2020-03-17 14:28:22:378
-0.004788,-0.153229,9.749189,8.0,49.8286,24.046192,353.0,NaN,4.932,12.5,232.9,4 / 4,43026,2020-03-17 14:28:22:878
3.275268,-0.617704,12.076353,8.0,49.8286,24.046192,353.0,NaN,4.932,12.5,232.9,4 / 4,43526,2020-03-17 14:28:23:378
0.488417,6.21056,9.677363,8.0,49.8286,24.046192,353.0,NaN,4.932,12.5,232.9,4 / 4,44026,2020-03-17 14:28:23:878
-1.015141,6.617574,6.469133,8.0,49.8286,24.046192,353.0,NaN,4.932,12.5,232.9,4 / 4,44526,2020-03-17 14:28:24:378
-0.56982,6.981492,6.339846,8.0,49.8286,24.046192,353.0,NaN,4.932,12.5,232.9,4 / 4,45026,2020-03-17 14:28:24:878
-0.196325,6.95755,6.727707,8.0,49.8286,24.046192,353.0,NaN,4.932,12.5,232.9,4 / 4,45526,2020-03-17 14:28:25:378
0.062249,6.885724,6.971915,8.0,49.8286,24.046192,353.0,NaN,4.932,12.5,232.9,4 / 4,46026,2020-03-17 14:28:25:878
0.095768,6.861782,6.794745,8.0,49.8286,24.046192,353.0,NaN,4.932,12.5,232.9,4 / 4,46526,2020-03-17 14:28:26:378
2.236184,6.751649,5.157111,8.0,49.8286,24.046192,353.0,NaN,4.932,12.5,232.9,4 / 4,47026,2020-03-17 14:28:26:878
4.070143,-0.225055,8.054095,8.0,49.8286,24.046192,353.0,NaN,4.932,12.5,232.9,4 / 4,47526,2020-03-17 14:28:27:378
-0.124498,-0.134075,9.758766,8.0,49.8286,24.046192,353.0,NaN,4.932,12.5,232.9,4 / 4,48027,2020-03-17 14:28:27:879
-0.134075,-0.114922,9.749189,8.0,49.8286,24.046192,353.0,NaN,4.932,12.5,232.9,4 / 4,48526,2020-03-17 14:28:28:378
-0.067038,-0.134075,9.739613,8.0,49.8286,24.046192,353.0,NaN,4.932,12.5,232.9,4 / 4,49026,2020-03-17 14:28:28:878
-0.09098,-0.124498,9.77792,8.0,49.8286,24.046192,353.0,NaN,4.932,12.5,232.9,4 / 4,49526,2020-03-17 14:28:29:378
-0.086191,-0.138864,9.782708,8.0,49.8286,24.046192,353.0,NaN,4.932,12.5,232.9,4 / 4,50026,2020-03-17 14:28:29:878
-0.095768,-0.134075,9.773131,8.0,49.8286,24.046192,353.0,NaN,4.932,12.5,232.9,4 / 4,50526,2020-03-17 14:28:30:378
-0.100556,-0.114922,9.77792,8.0,49.8286,24.046192,353.0,NaN,4.932,12.5,232.9,4 / 4,51026,2020-03-17 14:28:30:878
-0.076614,-0.110133,9.758766,8.0,49.8286,24.046192,353.0,NaN,4.932,12.5,232.9,4 / 4,51526,2020-03-17 14:28:31:378
-0.134075,-0.095768,9.749189,8.0,49.8286,24.046192,353.0,NaN,4.932,12.5,232.9,4 / 4,52026,2020-03-17 14:28:31:878
-0.138864,-0.11971,9.730036,8.0,49.8286,24.046192,353.0,NaN,4.932,12.5,232.9,4 / 4,52526,2020-03-17 14:28:32:378
-0.124498,-0.129287,9.782708,8.0,49.8286,24.046192,353.0,NaN,4.932,12.5,232.9,4 / 4,53026,2020-03-17 14:28:32:878
-0.105345,-0.138864,9.744401,8.0,49.8286,24.046192,353.0,NaN,4.932,12.5,232.9,4 / 4,53527,2020-03-17 14:28:33:379
-0.110133,-0.11971,9.739613,8.0,49.8286,24.046192,353.0,NaN,4.932,12.5,232.9,4 / 4,54026,2020-03-17 14:28:33:878
-0.095768,-0.162806,9.739613,8.0,49.8286,24.046192,353.0,NaN,4.932,12.5,232.9,4 / 4,54526,2020-03-17 14:28:34:378
-0.081403,-0.162806,9.77792,8.0,49.8286,24.046192,353.0,NaN,4.932,12.5,232.9,4 / 4,55026,2020-03-17 14:28:34:878
-0.177171,-0.162806,9.801862,8.0,49.8286,24.046192,353.0,NaN,4.932,12.5,232.9,4 / 4,55526,2020-03-17 14:28:35:378
-0.043096,-0.100556,9.77792,8.0,49.8286,24.046192,353.0,NaN,4.932,12.5,232.9,4 / 4,56026,2020-03-17 14:28:35:878
-0.105345,-0.143652,9.758766,8.0,49.8286,24.046192,353.0,NaN,4.932,12.5,232.9,4 / 4,56526,2020-03-17 14:28:36:378
-0.09098,-0.129287,9.744401,8.0,49.8286,24.046192,353.0,NaN,4.932,12.5,232.9,4 / 4,57026,2020-03-17 14:28:36:878
-0.110133,-0.105345,9.749189,8.0,49.8286,24.046192,353.0,NaN,4.932,12.5,232.9,4 / 4,57526,2020-03-17 14:28:37:378
-0.110133,-0.09098,9.768343,8.0,49.8286,24.046192,353.0,NaN,4.932,12.5,232.9,4 / 4,58026,2020-03-17 14:28:37:878
-0.110133,-0.09098,9.749189,8.0,49.8286,24.046192,353.0,NaN,4.932,12.5,232.9,4 / 4,58526,2020-03-17 14:28:38:378
-0.124498,-0.076614,9.758766,8.0,49.8286,24.046192,353.0,NaN,4.932,12.5,232.9,4 / 4,59026,2020-03-17 14:28:38:878
-0.100556,-0.11971,9.715671,8.0,49.8286,24.046192,353.0,NaN,4.932,12.5,232.9,4 / 4,59526,2020-03-17 14:28:39:378
-0.114922,-0.129287,9.787497,8.0,49.8286,24.046192,353.0,NaN,4.932,12.5,232.9,4 / 4,60027,2020-03-17 14:28:39:879
-0.11971,-0.138864,9.773131,8.0,49.8286,24.046192,353.0,NaN,4.932,12.5,232.9,4 / 4,60526,2020-03-17 14:28:40:378
-0.100556,-0.158017,9.758766,8.0,49.8286,24.046192,353.0,NaN,4.932,12.5,232.9,4 / 4,61026,2020-03-17 14:28:40:878
-0.11971,-0.158017,9.773131,8.0,49.8286,24.046192,353.0,NaN,4.932,12.5,232.9,4 / 4,61526,2020-03-17 14:28:41:378
-0.114922,-0.162806,9.768343,8.0,49.8286,24.046192,353.0,NaN,4.932,12.5,232.9,4 / 4,62026,2020-03-17 14:28:41:878
-0.086191,-0.129287,9.77792,8.0,49.8286,24.046192,353.0,NaN,4.932,12.5,232.9,4 / 4,62526,2020-03-17 14:28:42:378
-0.095768,-0.11971,9.749189,8.0,49.8286,24.046192,353.0,NaN,4.932,12.5,232.9,4 / 4,63026,2020-03-17 14:28:42:878
-0.100556,-0.134075,9.758766,8.0,49.8286,24.046192,353.0,NaN,4.932,12.5,232.9,4 / 4,63526,2020-03-17 14:28:43:378
-0.095768,-0.114922,9.739613,8.0,49.8286,24.046192,353.0,NaN,4.932,12.5,232.9,4 / 4,64026,2020-03-17 14:28:43:878
-0.105345,-0.153229,9.77792,8.0,49.8286,24.046192,353.0,NaN,4.932,12.5,232.9,4 / 4,64527,2020-03-17 14:28:44:379
-0.100556,-0.138864,9.749189,8.0,49.8286,24.046192,353.0,NaN,4.932,12.5,232.9,4 / 4,65026,2020-03-17 14:28:44:878
-0.100556,-0.134075,9.744401,8.0,49.8286,24.046192,353.0,NaN,4.932,12.5,232.9,4 / 4,65526,2020-03-17 14:28:45:378
-0.110133,-0.110133,9.749189,8.0,49.8286,24.046192,353.0,NaN,4.932,12.5,232.9,4 / 4,66026,2020-03-17 14:28:45:878
-0.095768,-0.124498,9.739613,8.0,49.8286,24.046192,353.0,NaN,4.932,12.5,232.9,4 / 4,66526,2020-03-17 14:28:46:378
-0.067038,-0.095768,9.758766,8.0,49.8286,24.046192,353.0,NaN,4.932,12.5,232.9,4 / 4,67026,2020-03-17 14:28:46:878
-0.158017,-0.134075,9.758766,8.0,49.8286,24.046192,353.0,NaN,4.932,12.5,232.9,4 / 4,67526,2020-03-17 14:28:47:378
-0.062249,-0.114922,9.744401,8.0,49.8286,24.046192,353.0,NaN,4.932,12.5,232.9,4 / 4,68026,2020-03-17 14:28:47:878
-0.21069,-0.129287,9.773131,8.0,49.8286,24.046192,353.0,NaN,4.932,12.5,232.9,4 / 4,68526,2020-03-17 14:28:48:378
-0.110133,-0.057461,9.768343,8.0,49.8286,24.046192,353.0,NaN,4.932,12.5,232.9,4 / 4,69026,2020-03-17 14:28:48:878
-0.110133,-0.138864,9.730036,8.0,49.8286,24.046192,353.0,NaN,4.932,12.5,232.9,4 / 4,69526,2020-03-17 14:28:49:378
-0.047884,-0.095768,9.773131,8.0,49.8286,24.046192,353.0,NaN,4.932,12.5,232.9,4 / 4,70026,2020-03-17 14:28:49:878
-0.086191,-0.110133,9.749189,8.0,49.8286,24.046192,353.0,NaN,4.932,12.5,232.9,4 / 4,70526,2020-03-17 14:28:50:378
-0.158017,-0.100556,9.787497,8.0,49.8286,24.046192,353.0,NaN,4.932,12.5,232.9,4 / 4,71026,2020-03-17 14:28:50:878
-0.105345,-0.134075,9.768343,8.0,49.8286,24.046192,353.0,NaN,4.932,12.5,232.9,4 / 4,71526,2020-03-17 14:28:51:378
-0.100556,-0.134075,9.768343,8.0,49.8286,24.046192,353.0,NaN,4.932,12.5,232.9,4 / 4,72026,2020-03-17 14:28:51:878
-0.105345,-0.129287,9.773131,8.0,49.8286,24.046192,353.0,NaN,4.932,12.5,232.9,4 / 4,72526,2020-03-17 14:28:52:378
-0.162806,-0.148441,9.763555,8.0,49.8286,24.046192,353.0,NaN,4.932,12.5,232.9,4 / 4,73027,2020-03-17 14:28:52:879
-0.11971,-0.158017,9.749189,8.0,49.8286,24.046192,353.0,NaN,4.932,12.5,232.9,4 / 4,73526,2020-03-17 14:28:53:378
-0.019154,-0.162806,9.782708,8.0,49.8286,24.046192,353.0,NaN,4.932,12.5,232.9,4 / 4,74026,2020-03-17 14:28:53:878
-0.038307,-0.129287,9.758766,8.0,49.8286,24.046192,353.0,NaN,4.932,12.5,232.9,4 / 4,74526,2020-03-17 14:28:54:378
-0.129287,-0.143652,9.744401,8.0,49.8286,24.046192,353.0,NaN,4.932,12.5,232.9,4 / 4,75026,2020-03-17 14:28:54:878
-0.11971,-0.138864,9.744401,8.0,49.8286,24.046192,353.0,NaN,4.932,12.5,232.9,4 / 4,75526,2020-03-17 14:28:55:378
-0.100556,-0.138864,9.768343,8.0,49.8286,24.046192,353.0,NaN,4.932,12.5,232.9,4 / 4,76026,2020-03-17 14:28:55:878
-0.158017,-0.095768,9.763555,8.0,49.8286,24.046192,353.0,NaN,4.932,12.5,232.9,4 / 4,76526,2020-03-17 14:28:56:378
-0.057461,-0.11971,9.768343,8.0,49.8286,24.046192,353.0,NaN,4.932,12.5,232.9,4 / 4,77026,2020-03-17 14:28:56:878
-0.033519,-0.124498,9.77792,8.0,49.8286,24.046192,353.0,NaN,4.932,12.5,232.9,4 / 4,77527,2020-03-17 14:28:57:379
-0.124498,-0.134075,9.753978,8.0,49.8286,24.046192,353.0,NaN,4.932,12.5,232.9,4 / 4,78026,2020-03-17 14:28:57:878
-0.100556,-0.138864,9.753978,8.0,49.8286,24.046192,353.0,NaN,4.932,12.5,232.9,4 / 4,78526,2020-03-17 14:28:58:378
-0.134075,-0.167594,9.753978,8.0,49.8286,24.046192,353.0,NaN,4.932,12.5,232.9,4 / 4,79026,2020-03-17 14:28:58:878
-0.067038,-0.158017,9.753978,8.0,49.8286,24.046192,353.0,NaN,4.932,12.5,232.9,4 / 4,79526,2020-03-17 14:28:59:378
-0.100556,-0.114922,9.758766,8.0,49.8286,24.046192,353.0,NaN,4.932,12.5,232.9,4 / 4,80026,2020-03-17 14:28:59:878
-0.11971,-0.124498,9.744401,8.0,49.8286,24.046192,353.0,NaN,4.932,12.5,232.9,4 / 4,80526,2020-03-17 14:29:00:378
-0.09098,-0.153229,9.739613,8.0,49.8286,24.046192,353.0,NaN,4.932,12.5,232.9,4 / 4,81026,2020-03-17 14:29:00:878
-0.158017,-0.124498,9.753978,8.0,49.8286,24.046192,353.0,NaN,4.932,12.5,232.9,0 / 0,81526,2020-03-17 14:29:01:378
-0.114922,-0.134075,9.715671,8.0,49.8286,24.046192,353.0,NaN,4.932,12.5,232.9,0 / 0,82027,2020-03-17 14:29:01:879
-0.124498,-0.086191,9.753978,8.0,49.8286,24.046192,353.0,NaN,4.932,12.5,232.9,0 / 0,82526,2020-03-17 14:29:02:378
-0.11971,-0.124498,9.739613,8.0,49.8286,24.046192,353.0,NaN,4.932,12.5,232.9,0 / 0,83026,2020-03-17 14:29:02:878
-0.105345,-0.124498,9.773131,8.0,49.8286,24.046192,353.0,NaN,4.932,12.5,232.9,0 / 0,83526,2020-03-17 14:29:03:378
-0.105345,-0.052672,9.787497,8.0,49.8286,24.046192,353.0,NaN,4.932,12.5,232.9,0 / 0,84026,2020-03-17 14:29:03:878
-0.071826,-0.129287,9.773131,8.0,49.8286,24.046192,353.0,NaN,4.932,12.5,232.9,0 / 0,84526,2020-03-17 14:29:04:378
-0.110133,-0.143652,9.749189,8.0,49.8286,24.046192,353.0,NaN,4.932,12.5,232.9,0 / 0,85026,2020-03-17 14:29:04:878
-0.004788,-0.110133,9.758766,8.0,49.8286,24.046192,353.0,NaN,4.932,12.5,232.9,0 / 0,85526,2020-03-17 14:29:05:378
-0.081403,-0.124498,9.801862,8.0,49.8286,24.046192,353.0,NaN,4.932,12.5,232.9,0 / 0,86027,2020-03-17 14:29:05:879
-0.11971,-0.129287,9.734824,8.0,49.8286,24.046192,353.0,NaN,4.932,12.5,232.9,0 / 0,86526,2020-03-17 14:29:06:378
-0.09098,-0.158017,9.739613,8.0,49.8286,24.046192,353.0,NaN,4.932,12.5,232.9,0 / 0,87026,2020-03-17 14:29:06:878
-0.138864,-0.124498,9.773131,8.0,49.8286,24.046192,353.0,NaN,4.932,12.5,232.9,0 / 0,87526,2020-03-17 14:29:07:378
-0.124498,-0.138864,9.787497,8.0,49.8286,24.046192,353.0,NaN,4.932,12.5,232.9,0 / 0,88026,2020-03-17 14:29:07:878
-0.086191,-0.167594,9.77792,8.0,49.8286,24.046192,353.0,NaN,4.932,12.5,232.9,0 / 0,88526,2020-03-17 14:29:08:378
-0.09098,-0.114922,9.763555,8.0,49.8286,24.046192,353.0,NaN,4.932,12.5,232.9,0 / 0,89026,2020-03-17 14:29:08:878
-0.148441,-0.153229,9.792285,8.0,49.8286,24.046192,353.0,NaN,4.932,12.5,232.9,0 / 0,89526,2020-03-17 14:29:09:378
-0.138864,-0.138864,9.782708,8.0,49.8286,24.046192,353.0,NaN,4.932,12.5,232.9,0 / 0,90026,2020-03-17 14:29:09:878
-0.124498,-0.153229,9.753978,8.0,49.8286,24.046192,353.0,NaN,4.932,12.5,232.9,0 / 0,90526,2020-03-17 14:29:10:378
-0.071826,-0.143652,9.758766,8.0,49.8286,24.046192,353.0,NaN,4.932,12.5,232.9,0 / 0,91026,2020-03-17 14:29:10:878
-0.110133,-0.129287,9.758766,8.0,49.8286,24.046192,353.0,NaN,4.932,12.5,232.9,0 / 0,91526,2020-03-17 14:29:11:378
0.191536,-0.320823,9.749189,8.0,49.8286,24.046192,353.0,NaN,4.932,12.5,232.9,0 / 0,92026,2020-03-17 14:29:11:878
-0.612916,-0.306458,9.821015,8.0,49.8286,24.046192,353.0,NaN,4.932,12.5,232.9,0 / 0,92527,2020-03-17 14:29:12:379
-0.124498,-0.143652,9.758766,8.0,49.8286,24.046192,353.0,NaN,4.932,12.5,232.9,0 / 0,93026,2020-03-17 14:29:12:878
-0.105345,-0.177171,9.773131,8.0,49.8286,24.046192,353.0,NaN,4.932,12.5,232.9,0 / 0,93526,2020-03-17 14:29:13:378
-0.076614,-0.105345,9.782708,8.0,49.8286,24.046192,353.0,NaN,4.932,12.5,232.9,0 / 0,94026,2020-03-17 14:29:13:878
-0.11971,-0.138864,9.782708,8.0,49.8286,24.046192,353.0,NaN,4.932,12.5,232.9,0 / 0,94526,2020-03-17 14:29:14:378
-0.110133,-0.095768,9.758766,8.0,49.8286,24.046192,353.0,NaN,4.932,12.5,232.9,0 / 0,95027,2020-03-17 14:29:14:879
-0.124498,-0.138864,9.773131,8.0,49.8286,24.046192,353.0,NaN,4.932,12.5,232.9,0 / 1,95526,2020-03-17 14:29:15:378
-0.124498,-0.134075,9.797073,8.0,49.8286,24.046192,353.0,NaN,4.932,12.5,232.9,0 / 1,96026,2020-03-17 14:29:15:878
-0.076614,-0.162806,9.782708,8.0,49.8286,24.046192,353.0,NaN,4.932,12.5,232.9,0 / 2,96526,2020-03-17 14:29:16:378
-0.095768,-0.114922,9.792285,8.0,49.8286,24.046192,353.0,NaN,4.932,12.5,232.9,0 / 2,97026,2020-03-17 14:29:16:878
-0.081403,-0.129287,9.811439,8.0,49.8286,24.046192,353.0,NaN,4.932,12.5,232.9,0 / 3,97526,2020-03-17 14:29:17:378
-0.134075,-0.086191,9.792285,8.0,49.8286,24.046192,353.0,NaN,4.932,12.5,232.9,0 / 3,98026,2020-03-17 14:29:17:878
-0.095768,-0.105345,9.773131,8.0,49.8286,24.046192,353.0,NaN,4.932,12.5,232.9,0 / 3,98526,2020-03-17 14:29:18:378
-0.047884,-0.172383,9.749189,8.0,49.8286,24.046192,353.0,NaN,4.932,12.5,232.9,0 / 3,99026,2020-03-17 14:29:18:878
-0.11971,-0.134075,9.77792,8.0,49.8286,24.046192,353.0,NaN,4.932,12.5,232.9,0 / 3,99526,2020-03-17 14:29:19:378
-0.052672,-0.114922,9.763555,8.0,49.8286,24.046192,353.0,NaN,4.932,12.5,232.9,0 / 3,100027,2020-03-17 14:29:19:879
-0.081403,-0.129287,9.763555,8.0,49.8286,24.046192,353.0,NaN,4.932,12.5,232.9,0 / 2,100526,2020-03-17 14:29:20:378
-0.138864,-0.134075,9.77792,8.0,49.8286,24.046192,353.0,NaN,4.932,12.5,232.9,0 / 2,101026,2020-03-17 14:29:20:878
-0.110133,-0.105345,9.758766,8.0,49.8286,24.046192,353.0,NaN,4.932,12.5,232.9,0 / 2,101526,2020-03-17 14:29:21:378
-0.086191,-0.110133,9.763555,8.0,49.8286,24.046192,353.0,NaN,4.932,12.5,232.9,0 / 2,102027,2020-03-17 14:29:21:879
-0.105345,-0.124498,9.77792,8.0,49.8286,24.046192,353.0,NaN,4.932,12.5,232.9,0 / 3,102526,2020-03-17 14:29:22:378
-0.11971,-0.148441,9.768343,8.0,49.8286,24.046192,353.0,NaN,4.932,12.5,232.9,0 / 3,103026,2020-03-17 14:29:22:878
-0.129287,-0.081403,9.773131,8.0,49.8286,24.046192,353.0,NaN,4.932,12.5,232.9,0 / 6,103526,2020-03-17 14:29:23:378
-0.138864,-0.114922,9.768343,8.0,49.8286,24.046192,353.0,NaN,4.932,12.5,232.9,0 / 6,104026,2020-03-17 14:29:23:878
-0.11971,-0.124498,9.768343,8.0,49.8286,24.046192,353.0,NaN,4.932,12.5,232.9,0 / 7,104526,2020-03-17 14:29:24:378
-0.086191,-0.138864,9.758766,8.0,49.8286,24.046192,353.0,NaN,4.932,12.5,232.9,0 / 7,105026,2020-03-17 14:29:24:878
-0.114922,-0.21069,9.797073,8.0,49.8286,24.046192,353.0,NaN,4.932,12.5,232.9,0 / 9,105527,2020-03-17 14:29:25:379
-0.143652,-0.138864,9.749189,8.0,49.8286,24.046192,353.0,NaN,4.932,12.5,232.9,0 / 9,106026,2020-03-17 14:29:25:878
-0.100556,-0.134075,9.782708,8.0,49.8286,24.046192,353.0,NaN,4.932,12.5,232.9,0 / 7,106526,2020-03-17 14:29:26:378
-0.02873,-0.100556,9.844957,8.0,49.8286,24.046192,353.0,NaN,4.932,12.5,232.9,0 / 7,107026,2020-03-17 14:29:26:878
-0.09098,-0.172383,9.758766,8.0,49.8286,24.046192,353.0,NaN,4.932,12.5,232.9,0 / 8,107526,2020-03-17 14:29:27:378
-0.167594,-0.201113,9.792285,8.0,49.8286,24.046192,353.0,NaN,4.932,12.5,232.9,0 / 8,108027,2020-03-17 14:29:27:879
-0.129287,-0.143652,9.749189,8.0,49.8286,24.046192,353.0,NaN,4.932,12.5,232.9,0 / 7,108526,2020-03-17 14:29:28:378
-0.129287,-0.11971,9.749189,8.0,49.8286,24.046192,353.0,NaN,4.932,12.5,232.9,0 / 7,109026,2020-03-17 14:29:28:878
-7.110779,-0.253785,9.921572,8.0,49.8286,24.046192,353.0,NaN,4.932,12.5,232.9,0 / 7,109526,2020-03-17 14:29:29:378
-1.757344,4.687847,6.823475,8.0,49.8286,24.046192,353.0,NaN,4.932,12.5,232.9,0 / 7,110026,2020-03-17 14:29:29:878
1.374272,7.383718,8.925584,8.0,49.8286,24.046192,353.0,NaN,4.932,12.5,232.9,0 / 6,110527,2020-03-17 14:29:30:379
0.033519,6.545748,7.010223,8.0,49.8286,24.046192,353.0,NaN,4.932,12.5,232.9,0 / 6,111026,2020-03-17 14:29:30:878
0.536301,7.173029,7.723695,8.0,49.8286,24.046192,353.0,NaN,4.932,12.5,232.9,0 / 5,111526,2020-03-17 14:29:31:378
0.665588,6.157887,7.029376,8.0,49.8286,24.046192,353.0,NaN,4.932,12.5,232.9,0 / 5,112026,2020-03-17 14:29:31:878
0.986411,6.019023,7.661446,8.0,49.8286,24.046192,353.0,NaN,4.932,12.5,232.9,0 / 7,112526,2020-03-17 14:29:32:378
0.794875,5.664682,8.192958,8.0,49.8286,24.046192,353.0,NaN,4.932,12.5,232.9,0 / 7,113026,2020-03-17 14:29:32:878
0.761356,5.535394,8.020576,8.0,49.8286,24.046192,353.0,NaN,4.932,12.5,232.9,4 / 7,113526,2020-03-17 14:29:33:378
0.737414,5.530606,7.991845,8.0,49.8286,24.046192,353.0,NaN,4.932,12.5,232.9,4 / 6,114026,2020-03-17 14:29:33:878
0.737414,5.444415,7.805098,8.0,49.8286,24.046192,353.0,NaN,4.932,12.5,232.9,4 / 6,114526,2020-03-17 14:29:34:378
0.871489,5.535394,8.073248,8.0,49.8286,24.046192,353.0,NaN,4.932,12.5,232.9,4 / 6,115026,2020-03-17 14:29:34:878
-0.033519,6.6894,6.904878,8.0,49.8286,24.046192,353.0,NaN,4.932,12.5,232.9,4 / 6,115526,2020-03-17 14:29:35:378
1.651999,7.450756,6.636728,8.0,49.8286,24.046192,353.0,NaN,4.932,12.5,232.9,4 / 6,116026,2020-03-17 14:29:35:878
0.847547,6.512229,8.863335,8.0,49.8286,24.046192,353.0,NaN,4.932,12.5,232.9,4 / 6,116526,2020-03-17 14:29:36:378
1.091756,6.44998,7.958327,8.0,49.8286,24.046192,353.0,NaN,4.932,12.5,232.9,4 / 6,117026,2020-03-17 14:29:36:878
1.56102,5.434838,8.552089,8.0,49.8286,24.046192,353.0,NaN,4.932,12.5,232.9,4 / 6,117526,2020-03-17 14:29:37:378
-0.536301,7.445967,5.602432,8.0,49.8286,24.046192,353.0,NaN,4.932,12.5,232.9,4 / 6,118026,2020-03-17 14:29:37:878
-0.038307,6.962339,7.177817,8.0,49.8286,24.046192,353.0,NaN,4.932,12.5,232.9,4 / 6,118526,2020-03-17 14:29:38:378
0.177171,6.603208,7.264008,8.0,49.8286,24.046192,353.0,NaN,4.932,12.5,232.9,4 / 6,119026,2020-03-17 14:29:38:878
0.229843,6.430826,7.125145,8.0,49.8286,24.046192,353.0,NaN,4.932,12.5,232.9,4 / 6,119526,2020-03-17 14:29:39:378
1.757344,6.095638,8.125921,8.0,49.8286,24.046192,353.0,NaN,4.932,12.5,232.9,4 / 6,120026,2020-03-17 14:29:39:878
0.962469,6.416461,7.163452,8.0,49.8286,24.046192,353.0,NaN,4.932,12.5,232.9,4 / 6,120526,2020-03-17 14:29:40:378
-0.497994,5.90889,4.448427,8.0,49.8286,24.046192,353.0,NaN,4.932,12.5,232.9,4 / 6,121026,2020-03-17 14:29:40:878
0.746991,5.951986,7.412449,8.0,49.8286,24.046192,353.0,NaN,4.932,12.5,232.9,4 / 6,121526,2020-03-17 14:29:41:378
-2.475604,4.76925,7.862559,8.0,49.8286,24.046192,353.0,NaN,4.932,12.5,232.9,4 / 6,122026,2020-03-17 14:29:41:878
-0.670376,5.841852,7.493851,8.0,49.8286,24.046192,353.0,NaN,4.932,12.5,232.9,4 / 6,122526,2020-03-17 14:29:42:378
-0.78051,5.904102,7.953538,8.0,49.8286,24.046192,353.0,NaN,4.932,12.5,232.9,4 / 6,123026,2020-03-17 14:29:42:878
-0.440533,6.435614,7.402872,8.0,49.8286,24.046192,353.0,NaN,4.932,12.5,232.9,4 / 6,123526,2020-03-17 14:29:43:378
-0.244209,5.990293,7.072472,8.0,49.8286,24.046192,353.0,NaN,4.932,12.5,232.9,4 / 6,124026,2020-03-17 14:29:43:878
-0.09098,6.50744,6.742072,8.0,49.8286,24.046192,353.0,NaN,4.932,12.5,232.9,4 / 6,124526,2020-03-17 14:29:44:378
0.229843,6.675035,8.274361,8.0,49.8286,24.046192,353.0,NaN,4.932,12.5,232.9,4 / 6,125026,2020-03-17 14:29:44:878
-0.143652,6.129156,7.963115,8.0,49.8286,24.046192,353.0,NaN,4.932,12.5,232.9,4 / 6,125526,2020-03-17 14:29:45:378
-0.746991,6.607997,7.240066,8.0,49.8286,24.046192,353.0,NaN,4.932,12.5,232.9,4 / 6,126026,2020-03-17 14:29:45:878
-0.54109,6.296751,6.991069,8.0,49.8286,24.046192,353.0,NaN,4.932,12.5,232.9,4 / 6,126526,2020-03-17 14:29:46:378
-0.972046,6.224925,6.713342,8.0,49.8286,24.046192,353.0,NaN,4.932,12.5,232.9,4 / 6,127026,2020-03-17 14:29:46:878
0.574608,6.411672,7.489063,8.0,49.8286,24.046192,353.0,NaN,4.932,12.5,232.9,4 / 6,127526,2020-03-17 14:29:47:378
-0.067038,6.938397,6.574478,8.0,49.8286,24.046192,353.0,NaN,4.932,12.5,232.9,4 / 6,128026,2020-03-17 14:29:47:878
-0.890643,7.613562,5.358224,8.0,49.8286,24.046192,353.0,NaN,4.932,12.5,232.9,4 / 6,128526,2020-03-17 14:29:48:378
-0.699107,7.335834,6.555324,8.0,49.8286,24.046192,353.0,NaN,4.932,12.5,232.9,4 / 6,129026,2020-03-17 14:29:48:878
-0.852336,6.799533,6.909666,8.0,49.8286,24.046192,353.0,NaN,4.932,12.5,232.9,4 / 6,129526,2020-03-17 14:29:49:378
-0.761356,6.258444,7.532159,8.0,49.8286,24.046192,353.0,NaN,4.932,12.5,232.9,4 / 6,130026,2020-03-17 14:29:49:878
-0.723049,6.33027,7.49864,8.0,49.8286,24.046192,353.0,NaN,4.932,12.5,232.9,4 / 6,130526,2020-03-17 14:29:50:378
-0.632069,6.344635,7.541735,8.0,49.8286,24.046192,353.0,NaN,4.932,12.5,232.9,4 / 6,131026,2020-03-17 14:29:50:878
-0.622492,6.382942,7.340623,8.0,49.8286,24.046192,353.0,NaN,4.932,12.5,232.9,4 / 6,131526,2020-03-17 14:29:51:378
-0.47884,6.38773,7.402872,8.0,49.8286,24.046192,353.0,NaN,4.932,12.5,232.9,4 / 6,132026,2020-03-17 14:29:51:878
0.081403,6.397307,7.484275,8.0,49.8286,24.046192,353.0,NaN,4.932,12.5,232.9,4 / 6,132526,2020-03-17 14:29:52:378
1.70946,7.364565,5.865794,8.0,49.8286,24.046192,353.0,NaN,4.932,12.5,232.9,4 / 6,133026,2020-03-17 14:29:52:878
0.325611,6.258444,7.809886,8.0,49.8286,24.046192,353.0,NaN,4.932,12.5,232.9,4 / 6,133526,2020-03-17 14:29:53:378
0.076614,5.516241,7.388507,8.0,49.8286,24.046192,353.0,NaN,4.932,12.5,232.9,4 / 6,134026,2020-03-17 14:29:53:878
0.158017,5.286398,8.192958,8.0,49.8286,24.046192,353.0,NaN,4.932,12.5,232.9,4 / 6,134527,2020-03-17 14:29:54:379
0.095768,5.358224,7.953538,8.0,49.8286,24.046192,353.0,NaN,4.932,12.5,232.9,4 / 6,135026,2020-03-17 14:29:54:878
0.292093,5.319916,8.317456,8.0,49.8286,24.046192,353.0,NaN,4.932,12.5,232.9,4 / 6,135526,2020-03-17 14:29:55:378
-0.579397,5.195418,8.441956,8.0,49.8286,24.046192,353.0,NaN,4.932,12.5,232.9,4 / 6,136026,2020-03-17 14:29:55:878
0.579397,5.995081,7.872135,8.0,49.8286,24.046192,353.0,NaN,4.932,12.5,232.9,4 / 6,136526,2020-03-17 14:29:56:378
0.703895,6.445191,7.422025,8.0,49.8286,24.046192,353.0,NaN,4.932,12.5,232.9,4 / 6,137027,2020-03-17 14:29:56:879
0.718261,6.473922,7.072472,8.0,49.8286,24.046192,353.0,NaN,4.932,12.5,232.9,4 / 6,137526,2020-03-17 14:29:57:378
0.746991,6.105214,7.115568,8.0,49.8286,24.046192,353.0,NaN,4.932,12.5,232.9,4 / 6,138026,2020-03-17 14:29:57:878
2.652776,-1.216254,2.829947,8.0,49.8286,24.046192,353.0,NaN,4.932,12.5,232.9,4 / 6,138527,2020-03-17 14:29:58:379
-0.09098,-0.095768,9.773131,8.0,49.8286,24.046192,353.0,NaN,4.932,12.5,232.9,4 / 6,139026,2020-03-17 14:29:58:878
-0.019154,-0.047884,9.758766,8.0,49.8286,24.046192,353.0,NaN,4.932,12.5,232.9,4 / 6,139526,2020-03-17 14:29:59:378
-0.047884,-0.081403,9.749189,8.0,49.8286,24.046192,353.0,NaN,4.932,12.5,232.9,4 / 6,140026,2020-03-17 14:29:59:878
-0.095768,-0.148441,9.773131,8.0,49.8286,24.046192,353.0,NaN,4.932,12.5,232.9,4 / 6,140526,2020-03-17 14:30:00:378
-0.047884,-0.110133,9.797073,8.0,49.8286,24.046192,353.0,NaN,4.932,12.5,232.9,4 / 6,141026,2020-03-17 14:30:00:878
-0.105345,-0.067038,9.730036,8.0,49.8286,24.046192,353.0,NaN,4.932,12.5,232.9,4 / 6,141526,2020-03-17 14:30:01:378
-0.067038,-0.038307,9.782708,8.0,49.8286,24.046192,353.0,NaN,4.932,12.5,232.9,0 / 0,142026,2020-03-17 14:30:01:878
-0.110133,-0.043096,9.787497,8.0,49.8286,24.046192,353.0,NaN,4.932,12.5,232.9,0 / 0,142526,2020-03-17 14:30:02:378
-0.067038,-0.038307,9.753978,8.0,49.8286,24.046192,353.0,NaN,4.932,12.5,232.9,0 / 0,143026,2020-03-17 14:30:02:878
-0.129287,-0.086191,9.763555,8.0,49.8286,24.046192,353.0,NaN,4.932,12.5,232.9,0 / 0,143526,2020-03-17 14:30:03:378
-0.134075,-0.043096,9.773131,8.0,49.8286,24.046192,353.0,NaN,4.932,12.5,232.9,0 / 0,144026,2020-03-17 14:30:03:878
-0.076614,-0.081403,9.758766,8.0,49.8286,24.046192,353.0,NaN,4.932,12.5,232.9,0 / 0,144526,2020-03-17 14:30:04:378
-0.148441,-0.062249,9.758766,8.0,49.8286,24.046192,353.0,NaN,4.932,12.5,232.9,0 / 0,145026,2020-03-17 14:30:04:878
-0.023942,-0.038307,9.744401,8.0,49.8286,24.046192,353.0,NaN,4.932,12.5,232.9,0 / 0,145526,2020-03-17 14:30:05:378
-0.057461,-0.067038,9.768343,8.0,49.8286,24.046192,353.0,NaN,4.932,12.5,232.9,0 / 0,146026,2020-03-17 14:30:05:878
-0.09098,-0.067038,9.758766,8.0,49.8286,24.046192,353.0,NaN,4.932,12.5,232.9,0 / 0,146526,2020-03-17 14:30:06:378
-0.114922,-0.095768,9.749189,8.0,49.8286,24.046192,353.0,NaN,4.932,12.5,232.9,0 / 0,147026,2020-03-17 14:30:06:878
-0.110133,-0.086191,9.763555,8.0,49.8286,24.046192,353.0,NaN,4.932,12.5,232.9,0 / 0,147526,2020-03-17 14:30:07:378
-0.110133,-0.009577,9.739613,8.0,49.8286,24.046192,353.0,NaN,4.932,12.5,232.9,0 / 0,148026,2020-03-17 14:30:07:878
-0.105345,-0.076614,9.782708,8.0,49.8286,24.046192,353.0,NaN,4.932,12.5,232.9,0 / 0,148527,2020-03-17 14:30:08:379
-0.114922,-0.09098,9.763555,8.0,49.8286,24.046192,353.0,NaN,4.932,12.5,232.9,0 / 0,149026,2020-03-17 14:30:08:878
-0.105345,-0.086191,9.768343,8.0,49.8286,24.046192,353.0,NaN,4.932,12.5,232.9,0 / 0,149526,2020-03-17 14:30:09:378
-0.100556,-0.081403,9.763555,8.0,49.8286,24.046192,353.0,NaN,4.932,12.5,232.9,0 / 0,150026,2020-03-17 14:30:09:878
-0.105345,-0.067038,9.758766,8.0,49.8286,24.046192,353.0,NaN,4.932,12.5,232.9,0 / 0,150526,2020-03-17 14:30:10:378
-0.134075,-0.067038,9.744401,8.0,49.8286,24.046192,353.0,NaN,4.932,12.5,232.9,0 / 0,151026,2020-03-17 14:30:10:878
-0.110133,-0.076614,9.758766,8.0,49.8286,24.046192,353.0,NaN,4.932,12.5,232.9,0 / 0,151526,2020-03-17 14:30:11:378
-0.167594,-0.129287,9.77792,8.0,49.8286,24.046192,353.0,NaN,4.932,12.5,232.9,0 / 0,152026,2020-03-17 14:30:11:878
-0.09098,-0.100556,9.768343,8.0,49.8286,24.046192,353.0,NaN,4.932,12.5,232.9,0 / 0,152526,2020-03-17 14:30:12:378
-0.100556,-0.071826,9.749189,8.0,49.8286,24.046192,353.0,NaN,4.932,12.5,232.9,0 / 0,153026,2020-03-17 14:30:12:878
-0.167594,-0.110133,9.763555,8.0,49.8286,24.046192,353.0,NaN,4.932,12.5,232.9,0 / 0,153526,2020-03-17 14:30:13:378
-0.100556,-0.110133,9.763555,8.0,49.8286,24.046192,353.0,NaN,4.932,12.5,232.9,0 / 0,154026,2020-03-17 14:30:13:878
-0.105345,-0.110133,9.758766,8.0,49.8286,24.046192,353.0,NaN,4.932,12.5,232.9,0 / 0,154526,2020-03-17 14:30:14:378
-0.114922,-0.057461,9.773131,8.0,49.8286,24.046192,353.0,NaN,4.932,12.5,232.9,0 / 1,155026,2020-03-17 14:30:14:878
-0.081403,-0.086191,9.768343,8.0,49.8286,24.046192,353.0,NaN,4.932,12.5,232.9,0 / 1,155526,2020-03-17 14:30:15:378
-0.100556,-0.081403,9.753978,8.0,49.8286,24.046192,353.0,NaN,4.932,12.5,232.9,0 / 2,156026,2020-03-17 14:30:15:878
-0.11971,-0.100556,9.734824,8.0,49.8286,24.046192,353.0,NaN,4.932,12.5,232.9,3 / 4,156526,2020-03-17 14:30:16:378
-0.129287,-0.09098,9.768343,8.0,49.8286,24.046192,353.0,NaN,4.932,12.5,232.9,3 / 4,157026,2020-03-17 14:30:16:878
-0.076614,-0.100556,9.77792,8.0,49.8286,24.046192,353.0,NaN,4.932,12.5,232.9,3 / 5,157526,2020-03-17 14:30:17:378
-0.081403,-0.062249,9.753978,8.0,49.8286,24.046192,353.0,NaN,4.932,12.5,232.9,4 / 6,158026,2020-03-17 14:30:17:878
-0.110133,-0.095768,9.77792,8.0,49.8286,24.046192,353.0,NaN,4.932,12.5,232.9,4 / 6,158526,2020-03-17 14:30:18:378
-0.124498,-0.076614,9.758766,8.0,49.8286,24.046192,353.0,NaN,4.932,12.5,232.9,4 / 6,159026,2020-03-17 14:30:18:878
-0.081403,-0.086191,9.753978,8.0,49.8286,24.046192,353.0,NaN,4.932,12.5,232.9,4 / 6,159526,2020-03-17 14:30:19:378
-0.081403,-0.100556,9.758766,8.0,49.8286,24.046192,353.0,NaN,4.932,12.5,232.9,4 / 6,160026,2020-03-17 14:30:19:878
-0.09098,-0.11971,9.773131,8.0,49.8286,24.046192,353.0,NaN,4.932,12.5,232.9,4 / 6,160526,2020-03-17 14:30:20:378
-0.162806,-0.134075,9.753978,8.0,49.8286,24.046192,353.0,NaN,4.932,12.5,232.9,4 / 5,161026,2020-03-17 14:30:20:878
-0.110133,-0.057461,9.763555,8.0,49.8286,24.046192,353.0,NaN,4.932,12.5,232.9,4 / 5,161526,2020-03-17 14:30:21:378
-0.138864,-0.081403,9.763555,8.0,49.8286,24.046192,353.0,NaN,4.932,12.5,232.9,4 / 5,162027,2020-03-17 14:30:21:879
-0.124498,-0.100556,9.773131,8.0,49.8286,24.046192,353.0,NaN,4.932,12.5,232.9,4 / 5,162526,2020-03-17 14:30:22:378
-0.095768,-0.095768,9.773131,8.0,49.8286,24.046192,353.0,NaN,4.932,12.5,232.9,4 / 5,163026,2020-03-17 14:30:22:878
-0.114922,-0.158017,9.782708,8.0,49.8286,24.046192,353.0,NaN,4.932,12.5,232.9,4 / 5,163526,2020-03-17 14:30:23:378
-0.105345,-0.114922,9.749189,8.0,49.8286,24.046192,353.0,NaN,4.932,12.5,232.9,4 / 5,164026,2020-03-17 14:30:23:878
-0.138864,-0.067038,9.682152,8.0,49.8286,24.046192,353.0,NaN,4.932,12.5,232.9,4 / 5,164526,2020-03-17 14:30:24:378
-0.114922,-0.057461,9.749189,8.0,49.8286,24.046192,353.0,NaN,4.932,12.5,232.9,4 / 5,165026,2020-03-17 14:30:24:878
-0.11971,-0.105345,9.744401,8.0,49.8286,24.046192,353.0,NaN,4.932,12.5,232.9,4 / 5,165526,2020-03-17 14:30:25:378
-0.057461,-0.095768,9.758766,8.0,49.8286,24.046192,353.0,NaN,4.932,12.5,232.9,4 / 5,166026,2020-03-17 14:30:25:878
-0.105345,-0.052672,9.773131,8.0,49.8286,24.046192,353.0,NaN,4.932,12.5,232.9,4 / 5,166526,2020-03-17 14:30:26:378
-0.067038,-0.09098,9.753978,8.0,49.8286,24.046192,353.0,NaN,4.932,12.5,232.9,4 / 5,167026,2020-03-17 14:30:26:878
-0.167594,-0.138864,9.749189,8.0,49.8286,24.046192,353.0,NaN,4.932,12.5,232.9,4 / 5,167526,2020-03-17 14:30:27:378
-0.124498,-0.095768,9.758766,8.0,49.8286,24.046192,353.0,NaN,4.932,12.5,232.9,4 / 5,168027,2020-03-17 14:30:27:879
-0.124498,-0.009577,9.77792,8.0,49.8286,24.046192,353.0,NaN,4.932,12.5,232.9,4 / 5,168526,2020-03-17 14:30:28:378
-0.105345,-0.124498,9.792285,8.0,49.8286,24.046192,353.0,NaN,4.932,12.5,232.9,4 / 5,169026,2020-03-17 14:30:28:878
-0.095768,-0.086191,9.801862,8.0,49.8286,24.046192,353.0,NaN,4.932,12.5,232.9,4 / 5,169526,2020-03-17 14:30:29:378
-0.105345,-0.095768,9.753978,8.0,49.8286,24.046192,353.0,NaN,4.932,12.5,232.9,4 / 5,170026,2020-03-17 14:30:29:878
-0.11971,-0.100556,9.744401,8.0,49.8286,24.046192,353.0,NaN,4.932,12.5,232.9,4 / 5,170527,2020-03-17 14:30:30:379
-0.09098,-0.057461,9.734824,8.0,49.8286,24.046192,353.0,NaN,4.932,12.5,232.9,4 / 5,171026,2020-03-17 14:30:30:878
-0.11971,-0.052672,9.792285,8.0,49.8286,24.046192,353.0,NaN,4.932,12.5,232.9,4 / 5,171526,2020-03-17 14:30:31:378
-0.110133,-0.100556,9.768343,8.0,49.8286,24.046192,353.0,NaN,4.932,12.5,232.9,4 / 5,172026,2020-03-17 14:30:31:878
-0.114922,-0.071826,9.830592,8.0,49.8286,24.046192,353.0,NaN,4.932,12.5,232.9,4 / 5,172526,2020-03-17 14:30:32:378
-0.11971,0.043096,9.691729,8.0,49.8286,24.046192,353.0,NaN,4.932,12.5,232.9,4 / 5,173026,2020-03-17 14:30:32:878
-0.095768,-0.086191,9.782708,8.0,49.8286,24.046192,353.0,NaN,4.932,12.5,232.9,4 / 5,173527,2020-03-17 14:30:33:379
-0.134075,-0.114922,9.725247,8.0,49.8286,24.046192,353.0,NaN,4.932,12.5,232.9,4 / 5,174026,2020-03-17 14:30:33:878
-0.110133,-0.076614,9.749189,8.0,49.8286,24.046192,353.0,NaN,4.932,12.5,232.9,4 / 5,174526,2020-03-17 14:30:34:378
-0.11971,-0.114922,9.77792,8.0,49.8286,24.046192,353.0,NaN,4.932,12.5,232.9,4 / 5,175026,2020-03-17 14:30:34:878
-0.114922,-0.09098,9.782708,8.0,49.8286,24.046192,353.0,NaN,4.932,12.5,232.9,4 / 5,175526,2020-03-17 14:30:35:378
-0.071826,-0.071826,9.758766,8.0,49.8286,24.046192,353.0,NaN,4.932,12.5,232.9,4 / 5,176027,2020-03-17 14:30:35:879
-0.100556,-0.09098,9.758766,8.0,49.8286,24.046192,353.0,NaN,4.932,12.5,232.9,4 / 5,176526,2020-03-17 14:30:36:378
-0.138864,-0.086191,9.763555,8.0,49.8286,24.046192,353.0,NaN,4.932,12.5,232.9,4 / 5,177026,2020-03-17 14:30:36:878
-0.114922,-0.086191,9.739613,8.0,49.8286,24.046192,353.0,NaN,4.932,12.5,232.9,4 / 5,177526,2020-03-17 14:30:37:378
-0.124498,-0.081403,9.744401,8.0,49.8286,24.046192,353.0,NaN,4.932,12.5,232.9,4 / 5,178026,2020-03-17 14:30:37:878
-0.100556,-0.09098,9.763555,8.0,49.8286,24.046192,353.0,NaN,4.932,12.5,232.9,4 / 5,178527,2020-03-17 14:30:38:379
-0.095768,-0.076614,9.753978,8.0,49.8286,24.046192,353.0,NaN,4.932,12.5,232.9,4 / 5,179026,2020-03-17 14:30:38:878
-0.100556,-0.086191,9.753978,8.0,49.8286,24.046192,353.0,NaN,4.932,12.5,232.9,4 / 5,179526,2020-03-17 14:30:39:378
-0.100556,-0.067038,9.758766,8.0,49.8286,24.046192,353.0,NaN,4.932,12.5,232.9,4 / 5,180026,2020-03-17 14:30:39:878
-0.100556,-0.038307,9.801862,8.0,49.8286,24.046192,353.0,NaN,4.932,12.5,232.9,4 / 5,180526,2020-03-17 14:30:40:378
-0.057461,-0.095768,9.758766,8.0,49.8286,24.046192,353.0,NaN,4.932,12.5,232.9,4 / 5,181026,2020-03-17 14:30:40:878
-0.153229,-0.062249,9.744401,8.0,49.8286,24.046192,353.0,NaN,4.932,12.5,232.9,4 / 5,181527,2020-03-17 14:30:41:379
-0.086191,-0.076614,9.787497,8.0,49.8286,24.046192,353.0,NaN,4.932,12.5,232.9,4 / 5,182026,2020-03-17 14:30:41:878
-0.167594,-0.158017,9.758766,8.0,49.8286,24.046192,353.0,NaN,4.932,12.5,232.9,4 / 5,182526,2020-03-17 14:30:42:378
-0.105345,-0.11971,9.77792,8.0,49.8286,24.046192,353.0,NaN,4.932,12.5,232.9,4 / 5,183026,2020-03-17 14:30:42:878
-0.100556,-0.09098,9.758766,8.0,49.8286,24.046192,353.0,NaN,4.932,12.5,232.9,4 / 5,183526,2020-03-17 14:30:43:378
-0.100556,-0.081403,9.758766,8.0,49.8286,24.046192,353.0,NaN,4.932,12.5,232.9,4 / 5,184026,2020-03-17 14:30:43:878
-0.114922,-0.081403,9.763555,8.0,49.8286,24.046192,353.0,NaN,4.932,12.5,232.9,4 / 5,184527,2020-03-17 14:30:44:379
-0.09098,-0.105345,9.758766,8.0,49.8286,24.046192,353.0,NaN,4.932,12.5,232.9,4 / 5,185026,2020-03-17 14:30:44:878
-0.114922,-0.071826,9.797073,8.0,49.8286,24.046192,353.0,NaN,4.932,12.5,232.9,4 / 5,185526,2020-03-17 14:30:45:378
-0.114922,-0.067038,9.749189,8.0,49.8286,24.046192,353.0,NaN,4.932,12.5,232.9,4 / 5,186026,2020-03-17 14:30:45:878
-0.114922,-0.076614,9.753978,8.0,49.8286,24.046192,353.0,NaN,4.932,12.5,232.9,4 / 5,186526,2020-03-17 14:30:46:378
-0.100556,-0.076614,9.730036,8.0,49.8286,24.046192,353.0,NaN,4.932,12.5,232.9,4 / 5,187026,2020-03-17 14:30:46:878
-0.134075,-0.081403,9.753978,8.0,49.8286,24.046192,353.0,NaN,4.932,12.5,232.9,4 / 5,187527,2020-03-17 14:30:47:379
-0.095768,-0.076614,9.797073,8.0,49.8286,24.046192,353.0,NaN,4.932,12.5,232.9,4 / 5,188026,2020-03-17 14:30:47:878
-0.076614,-0.057461,9.77792,8.0,49.8286,24.046192,353.0,NaN,4.932,12.5,232.9,4 / 5,188526,2020-03-17 14:30:48:378
-0.134075,-0.100556,9.758766,8.0,49.8286,24.046192,353.0,NaN,4.932,12.5,232.9,4 / 5,189026,2020-03-17 14:30:48:878
-0.086191,-0.062249,9.715671,8.0,49.8286,24.046192,353.0,NaN,4.932,12.5,232.9,4 / 5,189526,2020-03-17 14:30:49:378
-0.062249,-0.09098,9.744401,8.0,49.8286,24.046192,353.0,NaN,4.932,12.5,232.9,4 / 5,190027,2020-03-17 14:30:49:879
-0.124498,-0.09098,9.768343,8.0,49.8286,24.046192,353.0,NaN,4.932,12.5,232.9,4 / 5,190526,2020-03-17 14:30:50:378
-0.095768,-0.076614,9.758766,8.0,49.8286,24.046192,353.0,NaN,4.932,12.5,232.9,4 / 5,191026,2020-03-17 14:30:50:878
-0.076614,-0.071826,9.749189,8.0,49.8286,24.046192,353.0,NaN,4.932,12.5,232.9,4 / 5,191526,2020-03-17 14:30:51:378
-0.11971,-0.038307,9.749189,8.0,49.8286,24.046192,353.0,NaN,4.932,12.5,232.9,4 / 5,192026,2020-03-17 14:30:51:878
-0.067038,-0.076614,9.763555,8.0,49.8286,24.046192,353.0,NaN,4.932,12.5,232.9,4 / 5,192526,2020-03-17 14:30:52:378
-0.100556,-0.110133,9.744401,8.0,49.8286,24.046192,353.0,NaN,4.932,12.5,232.9,4 / 5,193026,2020-03-17 14:30:52:878
-0.057461,-0.110133,9.758766,8.0,49.8286,24.046192,353.0,NaN,4.932,12.5,232.9,4 / 5,193526,2020-03-17 14:30:53:378
-0.134075,-0.143652,9.782708,8.0,49.8286,24.046192,353.0,NaN,4.932,12.5,232.9,4 / 5,194026,2020-03-17 14:30:53:878
-0.100556,-0.086191,9.758766,8.0,49.8286,24.046192,353.0,NaN,4.932,12.5,232.9,4 / 5,194526,2020-03-17 14:30:54:378
-0.052672,-0.062249,9.763555,8.0,49.8286,24.046192,353.0,NaN,4.932,12.5,232.9,4 / 5,195026,2020-03-17 14:30:54:878
-0.09098,-0.105345,9.773131,8.0,49.8286,24.046192,353.0,NaN,4.932,12.5,232.9,4 / 5,195526,2020-03-17 14:30:55:378
-0.162806,-0.148441,9.758766,8.0,49.8286,24.046192,353.0,NaN,4.932,12.5,232.9,4 / 5,196026,2020-03-17 14:30:55:878
-0.143652,-0.081403,9.753978,8.0,49.8286,24.046192,353.0,NaN,4.932,12.5,232.9,4 / 5,196526,2020-03-17 14:30:56:378
-0.067038,-0.095768,9.753978,8.0,49.8286,24.046192,353.0,NaN,4.932,12.5,232.9,4 / 5,197026,2020-03-17 14:30:56:878
-0.081403,-0.086191,9.77792,8.0,49.8286,24.046192,353.0,NaN,4.932,12.5,232.9,4 / 5,197526,2020-03-17 14:30:57:378
-0.081403,-0.110133,9.763555,8.0,49.8286,24.046192,353.0,NaN,4.932,12.5,232.9,4 / 5,198026,2020-03-17 14:30:57:878
-0.124498,-0.067038,9.773131,8.0,49.8286,24.046192,353.0,NaN,4.932,12.5,232.9,4 / 5,198528,2020-03-17 14:30:58:380
-0.158017,-0.100556,9.763555,8.0,49.8286,24.046192,353.0,NaN,4.932,12.5,232.9,4 / 5,199026,2020-03-17 14:30:58:878
-0.081403,-0.086191,9.768343,8.0,49.8286,24.046192,353.0,NaN,4.932,12.5,232.9,4 / 5,199526,2020-03-17 14:30:59:378
-0.134075,-0.09098,9.892841,8.0,49.8286,24.046192,353.0,NaN,4.932,12.5,232.9,4 / 5,200026,2020-03-17 14:30:59:878
-0.110133,-0.043096,9.753978,8.0,49.8286,24.046192,353.0,NaN,4.932,12.5,232.9,4 / 5,200526,2020-03-17 14:31:00:378
-0.105345,-0.124498,9.782708,8.0,49.8286,24.046192,353.0,NaN,4.932,12.5,232.9,4 / 5,201027,2020-03-17 14:31:00:879
-0.057461,-0.047884,9.730036,8.0,49.8286,24.046192,353.0,NaN,4.932,12.5,232.9,4 / 5,201526,2020-03-17 14:31:01:378
-0.143652,-0.057461,9.634268,8.0,49.8286,24.046192,353.0,NaN,4.932,12.5,232.9,4 / 5,202027,2020-03-17 14:31:01:879
-0.129287,-0.076614,9.792285,8.0,49.8286,24.046192,353.0,NaN,4.932,12.5,232.9,4 / 5,202526,2020-03-17 14:31:02:378
-0.110133,-0.114922,9.768343,8.0,49.8286,24.046192,353.0,NaN,4.932,12.5,232.9,4 / 5,203026,2020-03-17 14:31:02:878
-0.110133,-0.081403,9.782708,8.0,49.8286,24.046192,353.0,NaN,4.932,12.5,232.9,4 / 5,203526,2020-03-17 14:31:03:378
-0.09098,-0.071826,9.749189,8.0,49.8286,24.046192,353.0,NaN,4.932,12.5,232.9,4 / 5,204026,2020-03-17 14:31:03:878
-0.095768,-0.086191,9.797073,8.0,49.8286,24.046192,353.0,NaN,4.932,12.5,232.9,4 / 5,204526,2020-03-17 14:31:04:378
-0.095768,-0.067038,9.758766,8.0,49.8286,24.046192,353.0,NaN,4.932,12.5,232.9,4 / 5,205026,2020-03-17 14:31:04:878
-0.100556,-0.071826,9.758766,8.0,49.8286,24.046192,353.0,NaN,4.932,12.5,232.9,4 / 5,205526,2020-03-17 14:31:05:378
-0.114922,-0.076614,9.763555,8.0,49.8286,24.046192,353.0,NaN,4.932,12.5,232.9,4 / 5,206026,2020-03-17 14:31:05:878
-0.09098,-0.081403,9.739613,8.0,49.8286,24.046192,353.0,NaN,4.932,12.5,232.9,4 / 5,206526,2020-03-17 14:31:06:378
-0.110133,-0.110133,9.77792,8.0,49.8286,24.046192,353.0,NaN,4.932,12.5,232.9,4 / 5,207026,2020-03-17 14:31:06:878
-0.086191,-0.100556,9.749189,8.0,49.8286,24.046192,353.0,NaN,4.932,12.5,232.9,4 / 5,207526,2020-03-17 14:31:07:378
-0.11971,-0.067038,9.801862,8.0,49.8286,24.046192,353.0,NaN,4.932,12.5,232.9,4 / 5,208026,2020-03-17 14:31:07:878
-0.105345,-0.086191,9.77792,8.0,49.8286,24.046192,353.0,NaN,4.932,12.5,232.9,4 / 5,208526,2020-03-17 14:31:08:378
-0.086191,-0.071826,9.768343,8.0,49.8286,24.046192,353.0,NaN,4.932,12.5,232.9,4 / 5,209026,2020-03-17 14:31:08:878
-0.095768,-0.086191,9.758766,8.0,49.8286,24.046192,353.0,NaN,4.932,12.5,232.9,0 / 0,209526,2020-03-17 14:31:09:378
-0.09098,-0.052672,9.763555,8.0,49.8286,24.046192,353.0,NaN,4.932,12.5,232.9,0 / 0,210026,2020-03-17 14:31:09:878
-0.105345,-0.076614,9.763555,8.0,49.8286,24.046192,353.0,NaN,4.932,12.5,232.9,0 / 0,210526,2020-03-17 14:31:10:378
-0.100556,-0.052672,9.773131,8.0,49.8286,24.046192,353.0,NaN,4.932,12.5,232.9,0 / 0,211026,2020-03-17 14:31:10:878
-0.086191,-0.09098,9.773131,8.0,49.8286,24.046192,353.0,NaN,4.932,12.5,232.9,0 / 0,211526,2020-03-17 14:31:11:378
-0.105345,-0.09098,9.744401,8.0,49.8286,24.046192,353.0,NaN,4.932,12.5,232.9,0 / 0,212026,2020-03-17 14:31:11:878
-0.11971,-0.076614,9.739613,8.0,49.8286,24.046192,353.0,NaN,4.932,12.5,232.9,0 / 0,212526,2020-03-17 14:31:12:378
-0.167594,-0.095768,9.768343,8.0,49.8286,24.046192,353.0,NaN,4.932,12.5,232.9,0 / 0,213026,2020-03-17 14:31:12:878
-0.100556,-0.009577,9.821015,8.0,49.8286,24.046192,353.0,NaN,4.932,12.5,232.9,0 / 0,213526,2020-03-17 14:31:13:378
-0.158017,-0.062249,9.749189,8.0,49.8286,24.046192,353.0,NaN,4.932,12.5,232.9,0 / 0,214026,2020-03-17 14:31:13:878
-0.100556,-0.062249,9.749189,8.0,49.8286,24.046192,353.0,NaN,4.932,12.5,232.9,0 / 0,214526,2020-03-17 14:31:14:378
-0.153229,-0.062249,9.749189,8.0,49.8286,24.046192,353.0,NaN,4.932,12.5,232.9,0 / 0,215026,2020-03-17 14:31:14:878
-0.09098,-0.043096,9.768343,8.0,49.8286,24.046192,353.0,NaN,4.932,12.5,232.9,0 / 0,215526,2020-03-17 14:31:15:378
-0.110133,-0.081403,9.773131,8.0,49.8286,24.046192,353.0,NaN,4.932,12.5,232.9,0 / 0,216027,2020-03-17 14:31:15:879
-0.11971,-0.047884,9.758766,8.0,49.8286,24.046192,353.0,NaN,4.932,12.5,232.9,0 / 0,216526,2020-03-17 14:31:16:378
-0.100556,-0.095768,9.744401,8.0,49.8286,24.046192,353.0,NaN,4.932,12.5,232.9,0 / 0,217026,2020-03-17 14:31:16:878
-0.110133,-0.086191,9.744401,8.0,49.8286,24.046192,353.0,NaN,4.932,12.5,232.9,0 / 0,217526,2020-03-17 14:31:17:378
-0.129287,-0.067038,9.768343,8.0,49.8286,24.046192,353.0,NaN,4.932,12.5,232.9,0 / 0,218026,2020-03-17 14:31:17:878
-0.148441,-0.071826,9.768343,8.0,49.8286,24.046192,353.0,NaN,4.932,12.5,232.9,0 / 0,218526,2020-03-17 14:31:18:378
-0.114922,-0.086191,9.768343,8.0,49.8286,24.046192,353.0,NaN,4.932,12.5,232.9,0 / 0,219026,2020-03-17 14:31:18:878
-0.105345,-0.081403,9.77792,8.0,49.8286,24.046192,353.0,NaN,4.932,12.5,232.9,0 / 0,219526,2020-03-17 14:31:19:378
-0.09098,-0.076614,9.758766,8.0,49.8286,24.046192,353.0,NaN,4.932,12.5,232.9,0 / 0,220026,2020-03-17 14:31:19:878
-0.095768,-0.081403,9.763555,8.0,49.8286,24.046192,353.0,NaN,4.932,12.5,232.9,0 / 0,220527,2020-03-17 14:31:20:379
-0.134075,-0.105345,9.773131,8.0,49.8286,24.046192,353.0,NaN,4.932,12.5,232.9,0 / 0,221026,2020-03-17 14:31:20:878
-0.158017,-0.09098,9.749189,8.0,49.8286,24.046192,353.0,NaN,4.932,12.5,232.9,0 / 0,221526,2020-03-17 14:31:21:378
-0.081403,-0.071826,9.763555,8.0,49.8286,24.046192,353.0,NaN,4.932,12.5,232.9,0 / 0,222026,2020-03-17 14:31:21:878
-0.095768,-0.067038,9.753978,8.0,49.8286,24.046192,353.0,NaN,4.932,12.5,232.9,0 / 1,222526,2020-03-17 14:31:22:378
-0.100556,-0.071826,9.753978,8.0,49.8286,24.046192,353.0,NaN,4.932,12.5,232.9,0 / 1,223026,2020-03-17 14:31:22:878
-0.105345,-0.11971,9.77792,8.0,49.8286,24.046192,353.0,NaN,4.932,12.5,232.9,0 / 1,223526,2020-03-17 14:31:23:378
-0.100556,-0.067038,9.749189,8.0,49.8286,24.046192,353.0,NaN,4.932,12.5,232.9,0 / 1,224026,2020-03-17 14:31:23:878
-0.114922,-0.057461,9.77792,8.0,49.8286,24.046192,353.0,NaN,4.932,12.5,232.9,0 / 5,224526,2020-03-17 14:31:24:378
-0.124498,-0.09098,9.768343,8.0,49.8286,24.046192,353.0,NaN,4.932,12.5,232.9,0 / 5,225026,2020-03-17 14:31:24:878
-0.11971,-0.076614,9.768343,8.0,49.8286,24.046192,353.0,NaN,4.932,12.5,232.9,0 / 5,225526,2020-03-17 14:31:25:378
-0.114922,-0.09098,9.773131,8.0,49.8286,24.046192,353.0,NaN,4.932,12.5,232.9,0 / 5,226026,2020-03-17 14:31:25:878
-0.138864,-0.081403,9.782708,8.0,49.8286,24.046192,353.0,NaN,4.932,12.5,232.9,0 / 5,226526,2020-03-17 14:31:26:378
-0.114922,-0.076614,9.77792,8.0,49.8286,24.046192,353.0,NaN,4.932,12.5,232.9,0 / 5,227027,2020-03-17 14:31:26:879
-0.11971,-0.081403,9.787497,8.0,49.8286,24.046192,353.0,NaN,4.932,12.5,232.9,0 / 5,227526,2020-03-17 14:31:27:378
-0.110133,-0.057461,9.782708,8.0,49.8286,24.046192,353.0,NaN,4.932,12.5,232.9,0 / 4,228026,2020-03-17 14:31:27:878
-0.105345,-0.105345,9.753978,8.0,49.8286,24.046192,353.0,NaN,4.932,12.5,232.9,0 / 4,228526,2020-03-17 14:31:28:378
-0.09098,-0.09098,9.725247,8.0,49.8286,24.046192,353.0,NaN,4.932,12.5,232.9,3 / 4,229026,2020-03-17 14:31:28:878
-0.148441,-0.129287,9.739613,8.0,49.8286,24.046192,353.0,NaN,4.932,12.5,232.9,3 / 4,229526,2020-03-17 14:31:29:378
-0.114922,-0.105345,9.77792,8.0,49.8286,24.046192,353.0,NaN,4.932,12.5,232.9,4 / 5,230026,2020-03-17 14:31:29:878
-0.153229,-0.086191,9.753978,8.0,49.8286,24.046192,353.0,NaN,4.932,12.5,232.9,4 / 5,230526,2020-03-17 14:31:30:378
-0.167594,-0.09098,9.773131,8.0,49.8286,24.046192,353.0,NaN,4.932,12.5,232.9,4 / 5,231026,2020-03-17 14:31:30:878
-0.100556,-0.09098,9.763555,8.0,49.8286,24.046192,353.0,NaN,4.932,12.5,232.9,4 / 5,231527,2020-03-17 14:31:31:379
-0.114922,-0.086191,9.773131,8.0,49.8286,24.046192,353.0,NaN,4.932,12.5,232.9,4 / 5,232026,2020-03-17 14:31:31:878
-0.081403,-0.062249,9.782708,8.0,49.8286,24.046192,353.0,NaN,4.932,12.5,232.9,4 / 5,232526,2020-03-17 14:31:32:378
-0.124498,-0.100556,9.744401,8.0,49.8286,24.046192,353.0,NaN,4.932,12.5,232.9,4 / 5,233026,2020-03-17 14:31:32:878
-0.129287,-0.067038,9.744401,8.0,49.8286,24.046192,353.0,NaN,4.932,12.5,232.9,4 / 5,233526,2020-03-17 14:31:33:378
-0.086191,-0.11971,9.782708,8.0,49.8286,24.046192,353.0,NaN,4.932,12.5,232.9,4 / 5,234026,2020-03-17 14:31:33:878
-0.095768,-0.105345,9.758766,8.0,49.8286,24.046192,353.0,NaN,4.932,12.5,232.9,4 / 5,234527,2020-03-17 14:31:34:379
-0.100556,-0.105345,9.768343,8.0,49.8286,24.046192,353.0,NaN,4.932,12.5,232.9,4 / 5,235026,2020-03-17 14:31:34:878
-0.138864,-0.110133,9.773131,8.0,49.8286,24.046192,353.0,NaN,4.932,12.5,232.9,4 / 5,235526,2020-03-17 14:31:35:378
-0.105345,-0.100556,9.753978,8.0,49.8286,24.046192,353.0,NaN,4.932,12.5,232.9,4 / 5,236026,2020-03-17 14:31:35:878
-0.110133,-0.095768,9.763555,8.0,49.8286,24.046192,353.0,NaN,4.932,12.5,232.9,4 / 5,236527,2020-03-17 14:31:36:379
-0.129287,-0.071826,9.758766,8.0,49.8286,24.046192,353.0,NaN,4.932,12.5,232.9,4 / 5,237026,2020-03-17 14:31:36:878
-0.129287,-0.071826,9.758766,8.0,49.8286,24.046192,353.0,NaN,4.932,12.5,232.9,4 / 5,237526,2020-03-17 14:31:37:378
-0.086191,-0.076614,9.773131,8.0,49.8286,24.046192,353.0,NaN,4.932,12.5,232.9,4 / 5,238026,2020-03-17 14:31:37:878
-0.110133,-0.057461,9.753978,8.0,49.8286,24.046192,353.0,NaN,4.932,12.5,232.9,4 / 5,238526,2020-03-17 14:31:38:378
-0.11971,-0.076614,9.734824,8.0,49.8286,24.046192,353.0,NaN,4.932,12.5,232.9,4 / 5,239026,2020-03-17 14:31:38:878
-0.100556,-0.081403,9.744401,8.0,49.8286,24.046192,353.0,NaN,4.932,12.5,232.9,4 / 5,239526,2020-03-17 14:31:39:378
-0.11971,-0.071826,9.763555,8.0,49.8286,24.046192,353.0,NaN,4.932,12.5,232.9,4 / 5,240026,2020-03-17 14:31:39:878
-0.138864,-0.081403,9.758766,8.0,49.8286,24.046192,353.0,NaN,4.932,12.5,232.9,4 / 5,240526,2020-03-17 14:31:40:378
-0.100556,-0.11971,9.758766,8.0,49.8286,24.046192,353.0,NaN,4.932,12.5,232.9,4 / 5,241026,2020-03-17 14:31:40:878
-0.129287,-0.105345,9.782708,8.0,49.8286,24.046192,353.0,NaN,4.932,12.5,232.9,4 / 5,241526,2020-03-17 14:31:41:378
-0.124498,-0.023942,9.773131,8.0,49.8286,24.046192,353.0,NaN,4.932,12.5,232.9,4 / 5,242026,2020-03-17 14:31:41:878
-0.086191,-0.033519,9.763555,8.0,49.8286,24.046192,353.0,NaN,4.932,12.5,232.9,4 / 5,242526,2020-03-17 14:31:42:378
-0.100556,-0.02873,9.797073,8.0,49.8286,24.046192,353.0,NaN,4.932,12.5,232.9,4 / 5,243026,2020-03-17 14:31:42:878
-0.076614,-0.11971,9.763555,8.0,49.8286,24.046192,353.0,NaN,4.932,12.5,232.9,4 / 5,243526,2020-03-17 14:31:43:378
-0.071826,-0.071826,9.792285,8.0,49.8286,24.046192,353.0,NaN,4.932,12.5,232.9,4 / 5,244026,2020-03-17 14:31:43:878
-0.105345,-0.067038,9.744401,8.0,49.8286,24.046192,353.0,NaN,4.932,12.5,232.9,4 / 5,244526,2020-03-17 14:31:44:378
-0.110133,-0.081403,9.797073,8.0,49.8286,24.046192,353.0,NaN,4.932,12.5,232.9,4 / 5,245026,2020-03-17 14:31:44:878
-0.09098,-0.110133,9.782708,8.0,49.8286,24.046192,353.0,NaN,4.932,12.5,232.9,4 / 5,245526,2020-03-17 14:31:45:378
-0.124498,-0.09098,9.753978,8.0,49.8286,24.046192,353.0,NaN,4.932,12.5,232.9,4 / 5,246026,2020-03-17 14:31:45:878
-0.100556,-0.067038,9.773131,8.0,49.8286,24.046192,353.0,NaN,4.932,12.5,232.9,4 / 5,246526,2020-03-17 14:31:46:378
-0.110133,-0.062249,9.768343,8.0,49.8286,24.046192,353.0,NaN,4.932,12.5,232.9,4 / 5,247026,2020-03-17 14:31:46:878
-0.110133,-0.09098,9.763555,8.0,49.8286,24.046192,353.0,NaN,4.932,12.5,232.9,4 / 5,247526,2020-03-17 14:31:47:378
-0.110133,-0.076614,9.758766,8.0,49.8286,24.046192,353.0,NaN,4.932,12.5,232.9,4 / 5,248026,2020-03-17 14:31:47:878
-0.086191,-0.086191,9.749189,8.0,49.8286,24.046192,353.0,NaN,4.932,12.5,232.9,4 / 5,248526,2020-03-17 14:31:48:378
-0.114922,-0.081403,9.792285,8.0,49.8286,24.046192,353.0,NaN,4.932,12.5,232.9,4 / 5,249026,2020-03-17 14:31:48:878
-0.148441,-0.114922,9.763555,8.0,49.8286,24.046192,353.0,NaN,4.932,12.5,232.9,4 / 5,249526,2020-03-17 14:31:49:378
-0.095768,-0.067038,9.782708,8.0,49.8286,24.046192,353.0,NaN,4.932,12.5,232.9,4 / 5,250026,2020-03-17 14:31:49:878
-0.095768,-0.100556,9.77792,8.0,49.8286,24.046192,353.0,NaN,4.932,12.5,232.9,4 / 5,250526,2020-03-17 14:31:50:378
-0.100556,-0.110133,9.768343,8.0,49.8286,24.046192,353.0,NaN,4.932,12.5,232.9,4 / 5,251026,2020-03-17 14:31:50:878
-0.100556,-0.11971,9.773131,8.0,49.8286,24.046192,353.0,NaN,4.932,12.5,232.9,4 / 5,251526,2020-03-17 14:31:51:378
-0.09098,-0.062249,9.768343,8.0,49.8286,24.046192,353.0,NaN,4.932,12.5,232.9,4 / 5,252026,2020-03-17 14:31:51:878
-0.110133,-0.105345,9.758766,8.0,49.8286,24.046192,353.0,NaN,4.932,12.5,232.9,4 / 5,252527,2020-03-17 14:31:52:379
-0.129287,-0.105345,9.773131,8.0,49.8286,24.046192,353.0,NaN,4.932,12.5,232.9,4 / 5,253026,2020-03-17 14:31:52:878
-0.086191,-0.114922,9.739613,8.0,49.8286,24.046192,353.0,NaN,4.932,12.5,232.9,4 / 5,253526,2020-03-17 14:31:53:378
-0.095768,-0.071826,9.773131,8.0,49.8286,24.046192,353.0,NaN,4.932,12.5,232.9,4 / 5,254026,2020-03-17 14:31:53:878
-0.105345,-0.114922,9.768343,8.0,49.8286,24.046192,353.0,NaN,4.932,12.5,232.9,4 / 5,254526,2020-03-17 14:31:54:378
-0.105345,-0.110133,9.768343,8.0,49.8286,24.046192,353.0,NaN,4.932,12.5,232.9,4 / 5,255026,2020-03-17 14:31:54:878
-0.095768,-0.086191,9.773131,8.0,49.8286,24.046192,353.0,NaN,4.932,12.5,232.9,4 / 5,255527,2020-03-17 14:31:55:379
-0.129287,-0.105345,9.749189,8.0,49.8286,24.046192,353.0,NaN,4.932,12.5,232.9,4 / 5,256026,2020-03-17 14:31:55:878
-0.110133,-0.062249,9.782708,8.0,49.8286,24.046192,353.0,NaN,4.932,12.5,232.9,4 / 5,256526,2020-03-17 14:31:56:378
-0.158017,-0.124498,9.782708,8.0,49.8286,24.046192,353.0,NaN,4.932,12.5,232.9,4 / 5,257026,2020-03-17 14:31:56:878
-0.129287,-0.086191,9.758766,8.0,49.8286,24.046192,353.0,NaN,4.932,12.5,232.9,4 / 5,257526,2020-03-17 14:31:57:378
-0.124498,-0.124498,9.739613,8.0,49.8286,24.046192,353.0,NaN,4.932,12.5,232.9,4 / 5,258026,2020-03-17 14:31:57:878
-0.114922,-0.086191,9.859323,8.0,49.8286,24.046192,353.0,NaN,4.932,12.5,232.9,4 / 5,258527,2020-03-17 14:31:58:379
-0.095768,-0.095768,9.773131,8.0,49.8286,24.046192,353.0,NaN,4.932,12.5,232.9,4 / 5,259026,2020-03-17 14:31:58:878
-0.138864,-0.09098,9.787497,8.0,49.8286,24.046192,353.0,NaN,4.932,12.5,232.9,4 / 5,259526,2020-03-17 14:31:59:378
-0.100556,-0.038307,9.792285,8.0,49.8286,24.046192,353.0,NaN,4.932,12.5,232.9,4 / 5,260026,2020-03-17 14:31:59:878
-0.158017,-0.100556,9.734824,8.0,49.8286,24.046192,353.0,NaN,4.932,12.5,232.9,4 / 5,260526,2020-03-17 14:32:00:378
-0.172383,-0.114922,9.782708,8.0,49.8286,24.046192,353.0,NaN,4.932,12.5,232.9,4 / 5,261026,2020-03-17 14:32:00:878
-0.09098,-0.138864,9.749189,8.0,49.8286,24.046192,353.0,NaN,4.932,12.5,232.9,4 / 5,261526,2020-03-17 14:32:01:378
-0.057461,-0.124498,9.969456,8.0,49.8286,24.046192,353.0,NaN,4.932,12.5,232.9,4 / 5,262026,2020-03-17 14:32:01:878
0.009577,0.081403,9.797073,8.0,49.8286,24.046192,353.0,NaN,4.932,12.5,232.9,4 / 5,262526,2020-03-17 14:32:02:378
-0.124498,-0.067038,9.758766,8.0,49.8286,24.046192,353.0,NaN,4.932,12.5,232.9,4 / 5,263027,2020-03-17 14:32:02:879
-0.392649,-0.052672,9.586384,8.0,49.8286,24.046192,353.0,NaN,4.932,12.5,232.9,4 / 5,263526,2020-03-17 14:32:03:378
-0.311246,-0.105345,9.749189,8.0,49.8286,24.046192,353.0,NaN,4.932,12.5,232.9,4 / 5,264026,2020-03-17 14:32:03:878
0.038307,-0.004788,9.753978,8.0,49.8286,24.046192,353.0,NaN,4.932,12.5,232.9,4 / 5,264526,2020-03-17 14:32:04:378
-0.220267,-0.11971,9.758766,8.0,49.8286,24.046192,353.0,NaN,4.932,12.5,232.9,4 / 5,265026,2020-03-17 14:32:04:878
-0.134075,-0.038307,9.749189,8.0,49.8286,24.046192,353.0,NaN,4.932,12.5,232.9,4 / 5,265526,2020-03-17 14:32:05:378
-0.086191,-0.086191,9.782708,8.0,49.8286,24.046192,353.0,NaN,4.932,12.5,232.9,4 / 5,266027,2020-03-17 14:32:05:879
-0.124498,-0.071826,9.753978,8.0,49.8286,24.046192,353.0,NaN,4.932,12.5,232.9,4 / 5,266526,2020-03-17 14:32:06:378
-0.095768,-0.095768,9.763555,8.0,49.8286,24.046192,353.0,NaN,4.932,12.5,232.9,4 / 5,267026,2020-03-17 14:32:06:878
-0.114922,-0.071826,9.782708,8.0,49.8286,24.046192,353.0,NaN,4.932,12.5,232.9,4 / 5,267526,2020-03-17 14:32:07:378
-0.134075,-0.100556,9.801862,8.0,49.8286,24.046192,353.0,NaN,4.932,12.5,232.9,4 / 5,268026,2020-03-17 14:32:07:878
-0.124498,-0.11971,9.773131,8.0,49.8286,24.046192,353.0,NaN,4.932,12.5,232.9,4 / 5,268526,2020-03-17 14:32:08:378
-0.11971,-0.100556,9.773131,8.0,49.8286,24.046192,353.0,NaN,4.932,12.5,232.9,4 / 5,269027,2020-03-17 14:32:08:879
-0.09098,-0.067038,9.734824,8.0,49.8286,24.046192,353.0,NaN,4.932,12.5,232.9,4 / 5,269526,2020-03-17 14:32:09:378
-0.100556,-0.076614,9.768343,8.0,49.8286,24.046192,353.0,NaN,4.932,12.5,232.9,4 / 5,270026,2020-03-17 14:32:09:878
-0.124498,-0.081403,9.768343,8.0,49.8286,24.046192,353.0,NaN,4.932,12.5,232.9,4 / 5,270526,2020-03-17 14:32:10:378
-0.086191,-0.100556,9.749189,8.0,49.8286,24.046192,353.0,NaN,4.932,12.5,232.9,4 / 5,271026,2020-03-17 14:32:10:878
-0.09098,-0.095768,9.787497,8.0,49.8286,24.046192,353.0,NaN,4.932,12.5,232.9,4 / 5,271526,2020-03-17 14:32:11:378
-0.095768,-0.067038,9.753978,8.0,49.8286,24.046192,353.0,NaN,4.932,12.5,232.9,4 / 5,272026,2020-03-17 14:32:11:878
-0.105345,-0.100556,9.768343,8.0,49.8286,24.046192,353.0,NaN,4.932,12.5,232.9,4 / 5,272527,2020-03-17 14:32:12:379
-0.110133,-0.086191,9.758766,8.0,49.8286,24.046192,353.0,NaN,4.932,12.5,232.9,4 / 5,273026,2020-03-17 14:32:12:878
-0.105345,-0.038307,9.768343,8.0,49.8286,24.046192,353.0,NaN,4.932,12.5,232.9,4 / 5,273526,2020-03-17 14:32:13:378
-0.095768,-0.076614,9.77792,8.0,49.8286,24.046192,353.0,NaN,4.932,12.5,232.9,4 / 5,274026,2020-03-17 14:32:13:878
-0.129287,-0.09098,9.749189,8.0,49.8286,24.046192,353.0,NaN,4.932,12.5,232.9,4 / 5,274526,2020-03-17 14:32:14:378
-0.153229,0.057461,9.753978,8.0,49.8286,24.046192,353.0,NaN,4.932,12.5,232.9,4 / 5,275026,2020-03-17 14:32:14:878
-0.100556,-0.110133,9.753978,8.0,49.8286,24.046192,353.0,NaN,4.932,12.5,232.9,4 / 5,275527,2020-03-17 14:32:15:379
-0.110133,-0.11971,9.739613,8.0,49.8286,24.046192,353.0,NaN,4.932,12.5,232.9,4 / 5,276026,2020-03-17 14:32:15:878
-0.11971,-0.081403,9.763555,8.0,49.8286,24.046192,353.0,NaN,4.932,12.5,232.9,4 / 5,276526,2020-03-17 14:32:16:378
-0.100556,-0.086191,9.744401,8.0,49.8286,24.046192,353.0,NaN,4.932,12.5,232.9,4 / 5,277026,2020-03-17 14:32:16:878
-0.09098,-0.11971,9.768343,8.0,49.8286,24.046192,353.0,NaN,4.932,12.5,232.9,4 / 5,277526,2020-03-17 14:32:17:378
-0.129287,-0.043096,9.792285,8.0,49.8286,24.046192,353.0,NaN,4.932,12.5,232.9,4 / 5,278026,2020-03-17 14:32:17:878
-0.129287,-0.086191,9.773131,8.0,49.8286,24.046192,353.0,NaN,4.932,12.5,232.9,4 / 5,278526,2020-03-17 14:32:18:378
-0.138864,-0.09098,9.749189,8.0,49.8286,24.046192,353.0,NaN,4.932,12.5,232.9,4 / 5,279026,2020-03-17 14:32:18:878
-0.086191,-0.076614,9.768343,8.0,49.8286,24.046192,353.0,NaN,4.932,12.5,232.9,4 / 5,279526,2020-03-17 14:32:19:378
-0.129287,-0.086191,9.758766,8.0,49.8286,24.046192,353.0,NaN,4.932,12.5,232.9,4 / 5,280026,2020-03-17 14:32:19:878
-0.114922,-0.095768,9.749189,8.0,49.8286,24.046192,353.0,NaN,4.932,12.5,232.9,4 / 5,280526,2020-03-17 14:32:20:378
-0.129287,-0.081403,9.749189,8.0,49.8286,24.046192,353.0,NaN,4.932,12.5,232.9,4 / 5,281026,2020-03-17 14:32:20:878
-7.359776,-1.575385,-1.067814,8.0,49.8286,24.046192,353.0,NaN,4.932,12.5,232.9,4 / 5,281527,2020-03-17 14:32:21:379
-3.102885,4.381389,5.33907,8.0,49.8286,24.046192,353.0,NaN,4.932,12.5,232.9,4 / 5,282026,2020-03-17 14:32:21:878
-4.295198,7.105991,6.962339,8.0,49.8286,24.046192,353.0,NaN,4.932,12.5,232.9,4 / 5,282526,2020-03-17 14:32:22:378