ACCELEROMETER X (m/s²),ACCELEROMETER Y (m/s²),ACCELEROMETER Z (m/s²),PROXIMITY (m),LOCATION Latitude : ,LOCATION Longitude : ,LOCATION Altitude ( m),LOCATION Altitude-google ( m),LOCATION Speed ( Kmh),LOCATION Accuracy ( m),LOCATION ORIENTATION (°),Satellites in range,Time since start in ms ,YYYY-MO-DD HH-MI-SS_SSS
1.000776,4.616021,8.576031,8.0,49.828648,24.04618,333.9,NaN,,21.047,,0 / 0,27,2020-03-19 12:13:04:880
0.718261,4.209007,8.446744,8.0,49.828648,24.04618,333.9,NaN,,21.047,,0 / 0,527,2020-03-19 12:13:05:380
-0.909797,-0.282516,9.203311,8.0,49.828648,24.04618,333.9,NaN,,21.047,,0 / 0,1027,2020-03-19 12:13:05:880
5.09965,0.148441,8.418014,8.0,49.828648,24.04618,333.9,NaN,,21.047,,0 / 0,1526,2020-03-19 12:13:06:379
1.762132,-0.162806,9.251195,8.0,49.828648,24.04618,333.9,NaN,,21.047,,0 / 0,2027,2020-03-19 12:13:06:880
-0.086191,-0.148441,9.787497,8.0,49.828648,24.04618,333.9,NaN,,21.047,,0 / 0,2527,2020-03-19 12:13:07:380
-0.062249,-0.191536,9.773131,8.0,49.828648,24.04618,333.9,NaN,,21.047,,0 / 0,3026,2020-03-19 12:13:07:879
-0.057461,-0.114922,9.763555,8.0,49.828648,24.04618,333.9,NaN,,21.047,,0 / 0,3527,2020-03-19 12:13:08:380
-0.124498,-0.162806,9.782708,8.0,49.828648,24.04618,333.9,NaN,,21.047,,0 / 0,4027,2020-03-19 12:13:08:880
-0.138864,-0.124498,9.768343,8.0,49.828648,24.04618,333.9,NaN,,21.047,,0 / 0,4526,2020-03-19 12:13:09:379
-0.095768,-0.129287,9.773131,8.0,49.828648,24.04618,333.9,NaN,,21.047,,0 / 0,5026,2020-03-19 12:13:09:879
-0.114922,-0.134075,9.782708,8.0,49.828648,24.04618,333.9,NaN,,21.047,,0 / 0,5527,2020-03-19 12:13:10:380
-0.114922,-0.134075,9.744401,8.0,49.828648,24.04618,333.9,NaN,,21.047,,0 / 1,6027,2020-03-19 12:13:10:880
-0.09098,-0.143652,9.773131,8.0,49.828648,24.04618,333.9,NaN,,21.047,,0 / 1,6526,2020-03-19 12:13:11:379
-0.095768,-0.129287,9.782708,8.0,49.828648,24.04618,333.9,NaN,,21.047,,0 / 1,7027,2020-03-19 12:13:11:880
-0.105345,-0.114922,9.763555,8.0,49.828648,24.04618,333.9,NaN,,21.047,,0 / 1,7527,2020-03-19 12:13:12:380
-0.148441,-0.148441,9.787497,8.0,49.828648,24.04618,333.9,NaN,,21.047,,0 / 6,8026,2020-03-19 12:13:12:879
-0.134075,-0.105345,9.773131,8.0,49.828648,24.04618,333.9,NaN,,21.047,,0 / 6,8527,2020-03-19 12:13:13:380
-0.100556,-0.124498,9.763555,8.0,49.828648,24.04618,333.9,NaN,,21.047,,5 / 5,9027,2020-03-19 12:13:13:880
-0.081403,-0.110133,9.744401,8.0,49.828648,24.04618,333.9,NaN,,21.047,,5 / 5,9527,2020-03-19 12:13:14:380
-0.124498,-0.153229,9.773131,8.0,49.828434,24.046211,343.0,NaN,2.124,19.0,34.2,5 / 6,10027,2020-03-19 12:13:14:880
-0.320823,-0.191536,9.792285,8.0,49.828434,24.046211,343.0,NaN,2.124,19.0,34.2,5 / 6,10527,2020-03-19 12:13:15:380
0.148441,-0.234632,9.768343,8.0,49.828434,24.046211,343.0,NaN,2.124,19.0,34.2,5 / 6,11026,2020-03-19 12:13:15:879
0.407014,0.023942,9.80665,8.0,49.828434,24.046211,343.0,NaN,2.124,19.0,34.2,5 / 6,11527,2020-03-19 12:13:16:380
-0.311246,-0.167594,9.768343,8.0,49.828434,24.046211,343.0,NaN,2.124,19.0,34.2,5 / 6,12027,2020-03-19 12:13:16:880
-0.038307,-0.244209,9.782708,8.0,49.828434,24.046211,343.0,NaN,2.124,19.0,34.2,5 / 6,12527,2020-03-19 12:13:17:380
-0.114922,-0.158017,9.801862,8.0,49.828434,24.046211,343.0,NaN,2.124,19.0,34.2,5 / 6,13026,2020-03-19 12:13:17:879
-0.124498,-0.114922,9.758766,8.0,49.828434,24.046211,343.0,NaN,2.124,19.0,34.2,5 / 6,13527,2020-03-19 12:13:18:380
-0.167594,-0.124498,9.667787,8.0,49.828434,24.046211,343.0,NaN,2.124,19.0,34.2,5 / 6,14027,2020-03-19 12:13:18:880
-0.11971,-0.124498,9.792285,8.0,49.828434,24.046211,343.0,NaN,2.124,19.0,34.2,5 / 6,14527,2020-03-19 12:13:19:380
-0.100556,-0.148441,9.792285,8.0,49.828434,24.046211,343.0,NaN,2.124,19.0,34.2,5 / 6,15027,2020-03-19 12:13:19:880
-0.138864,-0.110133,9.782708,8.0,49.828434,24.046211,343.0,NaN,2.124,19.0,34.2,5 / 6,15527,2020-03-19 12:13:20:380
-0.114922,-0.129287,9.77792,8.0,49.828434,24.046211,343.0,NaN,2.124,19.0,34.2,5 / 6,16027,2020-03-19 12:13:20:880
-0.129287,-0.124498,9.782708,8.0,49.828434,24.046211,343.0,NaN,2.124,19.0,34.2,5 / 6,16526,2020-03-19 12:13:21:379
-0.138864,-0.138864,9.77792,8.0,49.828434,24.046211,343.0,NaN,2.124,19.0,34.2,5 / 6,17026,2020-03-19 12:13:21:879
-0.114922,-0.11971,9.77792,8.0,49.828434,24.046211,343.0,NaN,2.124,19.0,34.2,5 / 6,17527,2020-03-19 12:13:22:380
-0.114922,-0.143652,9.758766,8.0,49.828434,24.046211,343.0,NaN,2.124,19.0,34.2,5 / 6,18027,2020-03-19 12:13:22:880
0.014365,-0.057461,9.734824,8.0,49.828434,24.046211,343.0,NaN,2.124,19.0,34.2,5 / 6,18526,2020-03-19 12:13:23:379
-0.110133,-0.134075,9.77792,8.0,49.828434,24.046211,343.0,NaN,2.124,19.0,34.2,5 / 6,19027,2020-03-19 12:13:23:880
-0.153229,-0.124498,9.763555,8.0,49.828434,24.046211,343.0,NaN,2.124,19.0,34.2,5 / 6,19527,2020-03-19 12:13:24:380
-0.086191,-0.134075,9.749189,8.0,49.828434,24.046211,343.0,NaN,2.124,19.0,34.2,5 / 6,20027,2020-03-19 12:13:24:880
-0.124498,-0.134075,9.782708,8.0,49.828434,24.046211,343.0,NaN,2.124,19.0,34.2,5 / 6,20527,2020-03-19 12:13:25:380
-0.138864,-0.134075,9.792285,8.0,49.828434,24.046211,343.0,NaN,2.124,19.0,34.2,5 / 6,21026,2020-03-19 12:13:25:879
-0.110133,-0.11971,9.77792,8.0,49.828434,24.046211,343.0,NaN,2.124,19.0,34.2,5 / 6,21527,2020-03-19 12:13:26:380
-0.095768,-0.124498,9.782708,8.0,49.828434,24.046211,343.0,NaN,2.124,19.0,34.2,5 / 6,22027,2020-03-19 12:13:26:880
-0.129287,-0.143652,9.77792,8.0,49.828434,24.046211,343.0,NaN,2.124,19.0,34.2,5 / 6,22527,2020-03-19 12:13:27:380
-0.191536,-0.057461,9.768343,8.0,49.828434,24.046211,343.0,NaN,2.124,19.0,34.2,5 / 6,23027,2020-03-19 12:13:27:880
-0.033519,-0.134075,9.758766,8.0,49.828434,24.046211,343.0,NaN,2.124,19.0,34.2,5 / 6,23527,2020-03-19 12:13:28:380
-0.134075,-0.033519,9.763555,8.0,49.828434,24.046211,343.0,NaN,2.124,19.0,34.2,5 / 6,24027,2020-03-19 12:13:28:880
-0.076614,-0.11971,9.782708,8.0,49.828434,24.046211,343.0,NaN,2.124,19.0,34.2,5 / 6,24527,2020-03-19 12:13:29:380
-0.095768,-0.172383,9.768343,8.0,49.828434,24.046211,343.0,NaN,2.124,19.0,34.2,5 / 6,25026,2020-03-19 12:13:29:879
-0.129287,-0.129287,9.763555,8.0,49.828434,24.046211,343.0,NaN,2.124,19.0,34.2,5 / 6,25526,2020-03-19 12:13:30:379
-0.100556,-0.134075,9.758766,8.0,49.828434,24.046211,343.0,NaN,2.124,19.0,34.2,5 / 6,26027,2020-03-19 12:13:30:880
-0.114922,-0.081403,9.706094,8.0,49.828434,24.046211,343.0,NaN,2.124,19.0,34.2,5 / 6,26527,2020-03-19 12:13:31:380
-0.124498,-0.138864,9.77792,8.0,49.828434,24.046211,343.0,NaN,2.124,19.0,34.2,5 / 6,27027,2020-03-19 12:13:31:880
-0.100556,-0.11971,9.763555,8.0,49.828434,24.046211,343.0,NaN,2.124,19.0,34.2,5 / 6,27526,2020-03-19 12:13:32:379
-0.124498,-0.105345,9.77792,8.0,49.828434,24.046211,343.0,NaN,2.124,19.0,34.2,5 / 6,28027,2020-03-19 12:13:32:880
-0.095768,-0.11971,9.792285,8.0,49.828434,24.046211,343.0,NaN,2.124,19.0,34.2,5 / 6,28527,2020-03-19 12:13:33:380
-0.105345,-0.105345,9.763555,8.0,49.828434,24.046211,343.0,NaN,2.124,19.0,34.2,5 / 6,29027,2020-03-19 12:13:33:880
-0.129287,-0.129287,9.773131,8.0,49.828434,24.046211,343.0,NaN,2.124,19.0,34.2,5 / 6,29526,2020-03-19 12:13:34:379
-0.095768,-0.124498,9.782708,8.0,49.828434,24.046211,343.0,NaN,2.124,19.0,34.2,5 / 6,30027,2020-03-19 12:13:34:880
-0.095768,-0.148441,9.758766,8.0,49.828434,24.046211,343.0,NaN,2.124,19.0,34.2,5 / 6,30526,2020-03-19 12:13:35:379
-0.105345,-0.09098,9.773131,8.0,49.828434,24.046211,343.0,NaN,2.124,19.0,34.2,5 / 6,31027,2020-03-19 12:13:35:880
-0.110133,-0.124498,9.773131,8.0,49.828434,24.046211,343.0,NaN,2.124,19.0,34.2,5 / 6,31527,2020-03-19 12:13:36:380
-0.114922,-0.105345,9.80665,8.0,49.828434,24.046211,343.0,NaN,2.124,19.0,34.2,5 / 6,32027,2020-03-19 12:13:36:880
-0.081403,-0.124498,9.763555,8.0,49.828434,24.046211,343.0,NaN,2.124,19.0,34.2,5 / 6,32527,2020-03-19 12:13:37:380
-0.124498,-0.081403,9.840169,8.0,49.828434,24.046211,343.0,NaN,2.124,19.0,34.2,5 / 6,33027,2020-03-19 12:13:37:880
-0.081403,-0.110133,9.773131,8.0,49.828434,24.046211,343.0,NaN,2.124,19.0,34.2,5 / 6,33527,2020-03-19 12:13:38:380
-0.09098,-0.11971,9.768343,8.0,49.828434,24.046211,343.0,NaN,2.124,19.0,34.2,5 / 6,34026,2020-03-19 12:13:38:879
-0.105345,-0.143652,9.768343,8.0,49.828434,24.046211,343.0,NaN,2.124,19.0,34.2,5 / 6,34527,2020-03-19 12:13:39:380
-0.105345,-0.138864,9.753978,8.0,49.828434,24.046211,343.0,NaN,2.124,19.0,34.2,5 / 6,35026,2020-03-19 12:13:39:879
-0.11971,-0.114922,9.768343,8.0,49.828434,24.046211,343.0,NaN,2.124,19.0,34.2,5 / 6,35527,2020-03-19 12:13:40:380
-0.110133,-0.138864,9.753978,8.0,49.828434,24.046211,343.0,NaN,2.124,19.0,34.2,5 / 6,36027,2020-03-19 12:13:40:880
-0.110133,-0.138864,9.758766,8.0,49.828434,24.046211,343.0,NaN,2.124,19.0,34.2,5 / 6,36527,2020-03-19 12:13:41:380
-0.110133,-0.134075,9.782708,8.0,49.828434,24.046211,343.0,NaN,2.124,19.0,34.2,5 / 6,37027,2020-03-19 12:13:41:880
-0.110133,-0.138864,9.782708,8.0,49.828434,24.046211,343.0,NaN,2.124,19.0,34.2,5 / 6,37526,2020-03-19 12:13:42:379
-0.071826,-0.129287,9.782708,8.0,49.828434,24.046211,343.0,NaN,2.124,19.0,34.2,5 / 6,38027,2020-03-19 12:13:42:880
-0.086191,-0.11971,9.763555,8.0,49.828434,24.046211,343.0,NaN,2.124,19.0,34.2,5 / 6,38527,2020-03-19 12:13:43:380
-0.114922,-0.143652,9.773131,8.0,49.828434,24.046211,343.0,NaN,2.124,19.0,34.2,5 / 6,39026,2020-03-19 12:13:43:879
-0.306458,-0.162806,9.739613,8.0,49.828434,24.046211,343.0,NaN,2.124,19.0,34.2,5 / 6,39527,2020-03-19 12:13:44:380
-0.062249,-0.081403,9.773131,8.0,49.828434,24.046211,343.0,NaN,2.124,19.0,34.2,5 / 6,40027,2020-03-19 12:13:44:880
-0.100556,-0.134075,9.77792,8.0,49.828434,24.046211,343.0,NaN,2.124,19.0,34.2,5 / 6,40527,2020-03-19 12:13:45:380
-0.110133,-0.105345,9.77792,8.0,49.828434,24.046211,343.0,NaN,2.124,19.0,34.2,5 / 6,41027,2020-03-19 12:13:45:880
-0.114922,-0.153229,9.758766,8.0,49.828434,24.046211,343.0,NaN,2.124,19.0,34.2,5 / 6,41526,2020-03-19 12:13:46:379
-0.095768,-0.086191,9.773131,8.0,49.828434,24.046211,343.0,NaN,2.124,19.0,34.2,5 / 6,42026,2020-03-19 12:13:46:879
-0.09098,-0.153229,9.763555,8.0,49.828434,24.046211,343.0,NaN,2.124,19.0,34.2,5 / 6,42527,2020-03-19 12:13:47:380
-0.02873,0.009577,9.730036,8.0,49.828434,24.046211,343.0,NaN,2.124,19.0,34.2,5 / 6,43026,2020-03-19 12:13:47:879
-0.143652,-0.105345,9.753978,8.0,49.828434,24.046211,343.0,NaN,2.124,19.0,34.2,5 / 6,43527,2020-03-19 12:13:48:380
-0.076614,-0.11971,9.768343,8.0,49.828434,24.046211,343.0,NaN,2.124,19.0,34.2,5 / 6,44027,2020-03-19 12:13:48:880
-0.114922,-0.148441,9.773131,8.0,49.828434,24.046211,343.0,NaN,2.124,19.0,34.2,5 / 6,44526,2020-03-19 12:13:49:379
-0.095768,-0.158017,9.77792,8.0,49.828434,24.046211,343.0,NaN,2.124,19.0,34.2,5 / 6,45027,2020-03-19 12:13:49:880
-0.100556,-0.129287,9.77792,8.0,49.828434,24.046211,343.0,NaN,2.124,19.0,34.2,5 / 6,45527,2020-03-19 12:13:50:380
-0.081403,-0.124498,9.758766,8.0,49.828434,24.046211,343.0,NaN,2.124,19.0,34.2,5 / 6,46027,2020-03-19 12:13:50:880
-0.081403,-0.153229,9.763555,8.0,49.828434,24.046211,343.0,NaN,2.124,19.0,34.2,5 / 6,46527,2020-03-19 12:13:51:380
-0.100556,-0.11971,9.782708,8.0,49.828434,24.046211,343.0,NaN,2.124,19.0,34.2,5 / 6,47027,2020-03-19 12:13:51:880
-0.114922,-0.114922,9.782708,8.0,49.828434,24.046211,343.0,NaN,2.124,19.0,34.2,5 / 6,47526,2020-03-19 12:13:52:379
-0.110133,-0.134075,9.77792,8.0,49.828434,24.046211,343.0,NaN,2.124,19.0,34.2,5 / 6,48027,2020-03-19 12:13:52:880
-0.105345,-0.129287,9.763555,8.0,49.828434,24.046211,343.0,NaN,2.124,19.0,34.2,5 / 6,48527,2020-03-19 12:13:53:380
-0.129287,-0.138864,9.773131,8.0,49.828434,24.046211,343.0,NaN,2.124,19.0,34.2,5 / 6,49027,2020-03-19 12:13:53:880
-0.162806,-0.148441,9.773131,8.0,49.828434,24.046211,343.0,NaN,2.124,19.0,34.2,5 / 6,49526,2020-03-19 12:13:54:379
-0.052672,-0.158017,9.773131,8.0,49.828434,24.046211,343.0,NaN,2.124,19.0,34.2,5 / 6,50026,2020-03-19 12:13:54:879
-0.110133,-0.153229,9.77792,8.0,49.828434,24.046211,343.0,NaN,2.124,19.0,34.2,5 / 6,50526,2020-03-19 12:13:55:379
-0.124498,-0.129287,9.782708,8.0,49.828434,24.046211,343.0,NaN,2.124,19.0,34.2,5 / 6,51027,2020-03-19 12:13:55:880
-0.033519,-0.162806,9.787497,8.0,49.828434,24.046211,343.0,NaN,2.124,19.0,34.2,5 / 6,51527,2020-03-19 12:13:56:380
-0.110133,-0.124498,9.753978,8.0,49.828434,24.046211,343.0,NaN,2.124,19.0,34.2,5 / 6,52026,2020-03-19 12:13:56:879
-0.09098,-0.215478,9.773131,8.0,49.828434,24.046211,343.0,NaN,2.124,19.0,34.2,5 / 6,52527,2020-03-19 12:13:57:380
-0.076614,-0.11971,9.792285,8.0,49.828434,24.046211,343.0,NaN,2.124,19.0,34.2,5 / 6,53027,2020-03-19 12:13:57:880
-0.129287,-0.124498,9.758766,8.0,49.828434,24.046211,343.0,NaN,2.124,19.0,34.2,5 / 6,53527,2020-03-19 12:13:58:380
-0.134075,-0.143652,9.758766,8.0,49.828434,24.046211,343.0,NaN,2.124,19.0,34.2,5 / 6,54026,2020-03-19 12:13:58:879
-0.09098,-0.110133,9.768343,8.0,49.828434,24.046211,343.0,NaN,2.124,19.0,34.2,5 / 6,54526,2020-03-19 12:13:59:379
-0.086191,-0.129287,9.739613,8.0,49.828434,24.046211,343.0,NaN,2.124,19.0,34.2,5 / 6,55026,2020-03-19 12:13:59:879
-0.124498,-0.129287,9.758766,8.0,49.828434,24.046211,343.0,NaN,2.124,19.0,34.2,5 / 6,55527,2020-03-19 12:14:00:380
-0.100556,-0.134075,9.763555,8.0,49.828434,24.046211,343.0,NaN,2.124,19.0,34.2,5 / 6,56027,2020-03-19 12:14:00:880
-0.100556,-0.134075,9.763555,8.0,49.828434,24.046211,343.0,NaN,2.124,19.0,34.2,5 / 6,56527,2020-03-19 12:14:01:380
-0.071826,-0.110133,9.773131,8.0,49.828434,24.046211,343.0,NaN,2.124,19.0,34.2,5 / 6,57027,2020-03-19 12:14:01:880
-0.11971,-0.134075,9.744401,8.0,49.828434,24.046211,343.0,NaN,2.124,19.0,34.2,5 / 6,57526,2020-03-19 12:14:02:379
-0.052672,-0.11971,9.773131,8.0,49.828434,24.046211,343.0,NaN,2.124,19.0,34.2,0 / 0,58027,2020-03-19 12:14:02:880
-0.158017,-0.124498,9.763555,8.0,49.828434,24.046211,343.0,NaN,2.124,19.0,34.2,0 / 0,58527,2020-03-19 12:14:03:380
-0.368707,-0.234632,9.734824,8.0,49.828434,24.046211,343.0,NaN,2.124,19.0,34.2,0 / 0,59027,2020-03-19 12:14:03:880
-2.901772,-1.776498,9.275137,8.0,49.828434,24.046211,343.0,NaN,2.124,19.0,34.2,0 / 0,59526,2020-03-19 12:14:04:379
-0.723049,-0.02873,9.581595,8.0,49.828434,24.046211,343.0,NaN,2.124,19.0,34.2,0 / 1,60026,2020-03-19 12:14:04:879
-0.023942,0.09098,5.396531,8.0,49.828434,24.046211,343.0,NaN,2.124,19.0,34.2,0 / 1,60526,2020-03-19 12:14:05:379
-0.09098,0.21069,9.787497,8.0,49.828434,24.046211,343.0,NaN,2.124,19.0,34.2,0 / 1,61026,2020-03-19 12:14:05:879
-0.11971,0.181959,9.734824,8.0,49.828434,24.046211,343.0,NaN,2.124,19.0,34.2,0 / 1,61526,2020-03-19 12:14:06:379
-0.076614,0.21069,9.739613,8.0,49.828434,24.046211,343.0,NaN,2.124,19.0,34.2,0 / 1,62026,2020-03-19 12:14:06:879
-0.067038,0.21069,9.77792,8.0,49.828434,24.046211,343.0,NaN,2.124,19.0,34.2,0 / 2,62526,2020-03-19 12:14:07:379
-0.100556,0.220267,9.753978,8.0,49.828434,24.046211,343.0,NaN,2.124,19.0,34.2,0 / 2,63027,2020-03-19 12:14:07:880
-0.110133,0.215478,9.945514,8.0,49.828434,24.046211,343.0,NaN,2.124,19.0,34.2,0 / 2,63527,2020-03-19 12:14:08:380
-0.129287,0.263362,9.758766,8.0,49.828434,24.046211,343.0,NaN,2.124,19.0,34.2,0 / 2,64027,2020-03-19 12:14:08:880
-0.110133,0.272939,9.734824,8.0,49.828434,24.046211,343.0,NaN,2.124,19.0,34.2,3 / 3,64527,2020-03-19 12:14:09:380
0.076614,0.153229,9.768343,8.0,49.828434,24.046211,343.0,NaN,2.124,19.0,34.2,3 / 3,65027,2020-03-19 12:14:09:880
-0.234632,0.253785,9.911995,8.0,49.828434,24.046211,343.0,NaN,2.124,19.0,34.2,3 / 3,65527,2020-03-19 12:14:10:380
-0.158017,0.181959,9.753978,8.0,49.828434,24.046211,343.0,NaN,2.124,19.0,34.2,3 / 3,66027,2020-03-19 12:14:10:880
-0.124498,0.248997,9.753978,8.0,49.828434,24.046211,343.0,NaN,2.124,19.0,34.2,4 / 4,66526,2020-03-19 12:14:11:379
-0.02873,0.162806,9.792285,8.0,49.828434,24.046211,343.0,NaN,2.124,19.0,34.2,4 / 4,67027,2020-03-19 12:14:11:880
-0.148441,0.244209,9.782708,8.0,49.828434,24.046211,343.0,NaN,2.124,19.0,34.2,5 / 5,67527,2020-03-19 12:14:12:380
-0.043096,0.191536,9.749189,8.0,49.828434,24.046211,343.0,NaN,2.124,19.0,34.2,5 / 5,68026,2020-03-19 12:14:12:879
-0.196325,0.263362,9.782708,8.0,49.828434,24.046211,343.0,NaN,2.124,19.0,34.2,5 / 5,68527,2020-03-19 12:14:13:380
-0.009577,0.215478,9.77792,8.0,49.828434,24.046211,343.0,NaN,2.124,19.0,34.2,5 / 5,69026,2020-03-19 12:14:13:879
-0.076614,0.263362,9.77792,8.0,49.828434,24.046211,343.0,NaN,2.124,19.0,34.2,5 / 5,69527,2020-03-19 12:14:14:380
-0.162806,0.354342,9.749189,8.0,49.828434,24.046211,343.0,NaN,2.124,19.0,34.2,5 / 5,70027,2020-03-19 12:14:14:880
-0.043096,0.162806,9.782708,8.0,49.828434,24.046211,343.0,NaN,2.124,19.0,34.2,5 / 5,70527,2020-03-19 12:14:15:380
-0.076614,0.205901,9.758766,8.0,49.828434,24.046211,343.0,NaN,2.124,19.0,34.2,5 / 5,71027,2020-03-19 12:14:15:880
-0.095768,0.253785,9.763555,8.0,49.828434,24.046211,343.0,NaN,2.124,19.0,34.2,5 / 5,71527,2020-03-19 12:14:16:380
0.009577,0.162806,9.768343,8.0,49.828434,24.046211,343.0,NaN,2.124,19.0,34.2,5 / 5,72026,2020-03-19 12:14:16:879
-0.11971,0.181959,9.773131,8.0,49.828434,24.046211,343.0,NaN,2.124,19.0,34.2,5 / 5,72526,2020-03-19 12:14:17:379
-0.181959,0.181959,9.782708,8.0,49.828434,24.046211,343.0,NaN,2.124,19.0,34.2,5 / 5,73026,2020-03-19 12:14:17:879
-0.148441,0.215478,9.768343,8.0,49.828434,24.046211,343.0,NaN,2.124,19.0,34.2,5 / 5,73527,2020-03-19 12:14:18:380
-0.114922,0.263362,9.744401,8.0,49.828434,24.046211,343.0,NaN,2.124,19.0,34.2,5 / 5,74027,2020-03-19 12:14:18:880
-0.076614,0.196325,9.782708,8.0,49.828434,24.046211,343.0,NaN,2.124,19.0,34.2,5 / 5,74527,2020-03-19 12:14:19:380
-0.09098,0.23942,9.768343,8.0,49.828434,24.046211,343.0,NaN,2.124,19.0,34.2,5 / 5,75027,2020-03-19 12:14:19:880
-0.114922,0.229843,9.768343,8.0,49.828434,24.046211,343.0,NaN,2.124,19.0,34.2,5 / 5,75526,2020-03-19 12:14:20:379
-0.100556,0.225055,9.782708,8.0,49.828434,24.046211,343.0,NaN,2.124,19.0,34.2,5 / 5,76026,2020-03-19 12:14:20:879
-0.100556,0.21069,9.782708,8.0,49.828434,24.046211,343.0,NaN,2.124,19.0,34.2,5 / 5,76527,2020-03-19 12:14:21:380
-0.076614,0.234632,9.768343,8.0,49.828434,24.046211,343.0,NaN,2.124,19.0,34.2,5 / 5,77027,2020-03-19 12:14:21:880
-0.110133,0.225055,9.773131,8.0,49.828434,24.046211,343.0,NaN,2.124,19.0,34.2,5 / 5,77526,2020-03-19 12:14:22:379
-0.062249,0.229843,9.773131,8.0,49.828434,24.046211,343.0,NaN,2.124,19.0,34.2,5 / 5,78027,2020-03-19 12:14:22:880
-0.071826,0.225055,9.782708,8.0,49.828434,24.046211,343.0,NaN,2.124,19.0,34.2,5 / 5,78526,2020-03-19 12:14:23:379
-0.09098,0.272939,9.763555,8.0,49.828434,24.046211,343.0,NaN,2.124,19.0,34.2,5 / 5,79027,2020-03-19 12:14:23:880
-0.110133,0.205901,9.773131,8.0,49.828434,24.046211,343.0,NaN,2.124,19.0,34.2,5 / 5,79527,2020-03-19 12:14:24:380
-0.081403,0.234632,9.730036,8.0,49.828434,24.046211,343.0,NaN,2.124,19.0,34.2,5 / 5,80027,2020-03-19 12:14:24:880
-0.062249,0.263362,9.720459,8.0,49.828434,24.046211,343.0,NaN,2.124,19.0,34.2,5 / 5,80527,2020-03-19 12:14:25:380
-0.272939,0.229843,9.77792,8.0,49.828434,24.046211,343.0,NaN,2.124,19.0,34.2,5 / 5,81027,2020-03-19 12:14:25:880
-0.057461,0.244209,9.792285,8.0,49.828434,24.046211,343.0,NaN,2.124,19.0,34.2,5 / 5,81527,2020-03-19 12:14:26:380
-0.105345,0.220267,9.744401,8.0,49.828434,24.046211,343.0,NaN,2.124,19.0,34.2,5 / 5,82027,2020-03-19 12:14:26:880
-0.105345,0.229843,9.782708,8.0,49.828434,24.046211,343.0,NaN,2.124,19.0,34.2,5 / 5,82527,2020-03-19 12:14:27:380
-0.067038,0.229843,9.763555,8.0,49.828434,24.046211,343.0,NaN,2.124,19.0,34.2,5 / 5,83027,2020-03-19 12:14:27:880
-0.081403,0.248997,9.763555,8.0,49.828434,24.046211,343.0,NaN,2.124,19.0,34.2,5 / 5,83527,2020-03-19 12:14:28:380
-0.081403,0.225055,9.768343,8.0,49.828434,24.046211,343.0,NaN,2.124,19.0,34.2,5 / 5,84027,2020-03-19 12:14:28:880
-0.095768,0.220267,9.734824,8.0,49.828434,24.046211,343.0,NaN,2.124,19.0,34.2,5 / 5,84527,2020-03-19 12:14:29:380
-0.076614,0.215478,9.787497,8.0,49.828434,24.046211,343.0,NaN,2.124,19.0,34.2,5 / 5,85027,2020-03-19 12:14:29:880
-0.100556,0.272939,9.77792,8.0,49.828434,24.046211,343.0,NaN,2.124,19.0,34.2,5 / 5,85527,2020-03-19 12:14:30:380
-0.110133,0.201113,9.787497,8.0,49.828434,24.046211,343.0,NaN,2.124,19.0,34.2,5 / 5,86027,2020-03-19 12:14:30:880
-0.095768,0.225055,9.753978,8.0,49.828434,24.046211,343.0,NaN,2.124,19.0,34.2,5 / 5,86527,2020-03-19 12:14:31:380
-0.086191,0.21069,9.773131,8.0,49.828434,24.046211,343.0,NaN,2.124,19.0,34.2,5 / 5,87027,2020-03-19 12:14:31:880
-0.071826,0.21069,9.773131,8.0,49.828434,24.046211,343.0,NaN,2.124,19.0,34.2,5 / 5,87526,2020-03-19 12:14:32:379
-0.09098,0.205901,9.763555,8.0,49.828434,24.046211,343.0,NaN,2.124,19.0,34.2,5 / 5,88027,2020-03-19 12:14:32:880
-0.081403,0.21069,9.758766,8.0,49.828434,24.046211,343.0,NaN,2.124,19.0,34.2,5 / 5,88527,2020-03-19 12:14:33:380
-0.095768,0.244209,9.753978,8.0,49.828434,24.046211,343.0,NaN,2.124,19.0,34.2,5 / 5,89027,2020-03-19 12:14:33:880
-0.105345,0.23942,9.782708,8.0,49.828434,24.046211,343.0,NaN,2.124,19.0,34.2,5 / 5,89527,2020-03-19 12:14:34:380
-0.09098,0.215478,9.77792,8.0,49.828434,24.046211,343.0,NaN,2.124,19.0,34.2,5 / 5,90026,2020-03-19 12:14:34:879
-0.057461,0.201113,9.758766,8.0,49.828434,24.046211,343.0,NaN,2.124,19.0,34.2,5 / 5,90527,2020-03-19 12:14:35:380
-0.081403,0.220267,9.773131,8.0,49.828434,24.046211,343.0,NaN,2.124,19.0,34.2,5 / 5,91027,2020-03-19 12:14:35:880
-0.100556,0.229843,9.782708,8.0,49.828434,24.046211,343.0,NaN,2.124,19.0,34.2,5 / 5,91526,2020-03-19 12:14:36:379
-0.095768,0.263362,9.730036,8.0,49.828434,24.046211,343.0,NaN,2.124,19.0,34.2,5 / 5,92026,2020-03-19 12:14:36:879
-0.100556,0.225055,9.763555,8.0,49.828434,24.046211,343.0,NaN,2.124,19.0,34.2,5 / 5,92527,2020-03-19 12:14:37:380
-0.09098,0.225055,9.753978,8.0,49.828434,24.046211,343.0,NaN,2.124,19.0,34.2,5 / 5,93026,2020-03-19 12:14:37:879
-0.09098,0.186748,9.797073,8.0,49.828434,24.046211,343.0,NaN,2.124,19.0,34.2,5 / 5,93526,2020-03-19 12:14:38:379
-0.105345,0.220267,9.758766,8.0,49.828434,24.046211,343.0,NaN,2.124,19.0,34.2,5 / 5,94027,2020-03-19 12:14:38:880
-0.038307,0.229843,9.797073,8.0,49.828434,24.046211,343.0,NaN,2.124,19.0,34.2,5 / 5,94526,2020-03-19 12:14:39:379
-0.105345,0.215478,9.768343,8.0,49.828434,24.046211,343.0,NaN,2.124,19.0,34.2,5 / 5,95026,2020-03-19 12:14:39:879
-0.11971,0.229843,9.763555,8.0,49.828434,24.046211,343.0,NaN,2.124,19.0,34.2,5 / 5,95527,2020-03-19 12:14:40:380
-0.110133,0.234632,9.768343,8.0,49.828434,24.046211,343.0,NaN,2.124,19.0,34.2,5 / 5,96027,2020-03-19 12:14:40:880
-0.100556,0.220267,9.77792,8.0,49.828434,24.046211,343.0,NaN,2.124,19.0,34.2,5 / 5,96526,2020-03-19 12:14:41:379
-0.100556,0.205901,9.758766,8.0,49.828434,24.046211,343.0,NaN,2.124,19.0,34.2,5 / 5,97027,2020-03-19 12:14:41:880
-0.076614,0.244209,9.734824,8.0,49.828434,24.046211,343.0,NaN,2.124,19.0,34.2,5 / 5,97526,2020-03-19 12:14:42:379
-0.095768,0.220267,9.768343,8.0,49.828434,24.046211,343.0,NaN,2.124,19.0,34.2,5 / 5,98027,2020-03-19 12:14:42:880
-0.100556,0.205901,9.782708,8.0,49.828434,24.046211,343.0,NaN,2.124,19.0,34.2,5 / 5,98527,2020-03-19 12:14:43:380
-0.095768,0.234632,9.763555,8.0,49.828434,24.046211,343.0,NaN,2.124,19.0,34.2,5 / 5,99027,2020-03-19 12:14:43:880
-0.086191,0.234632,9.753978,8.0,49.828434,24.046211,343.0,NaN,2.124,19.0,34.2,5 / 5,99527,2020-03-19 12:14:44:380
-0.105345,0.225055,9.753978,8.0,49.828434,24.046211,343.0,NaN,2.124,19.0,34.2,5 / 5,100027,2020-03-19 12:14:44:880
-0.086191,0.234632,9.77792,8.0,49.828434,24.046211,343.0,NaN,2.124,19.0,34.2,5 / 5,100527,2020-03-19 12:14:45:380
-0.076614,0.225055,9.744401,8.0,49.828434,24.046211,343.0,NaN,2.124,19.0,34.2,5 / 5,101027,2020-03-19 12:14:45:880
-0.114922,0.225055,9.753978,8.0,49.828434,24.046211,343.0,NaN,2.124,19.0,34.2,5 / 5,101526,2020-03-19 12:14:46:379
-0.081403,0.196325,9.782708,8.0,49.828434,24.046211,343.0,NaN,2.124,19.0,34.2,5 / 5,102027,2020-03-19 12:14:46:880
-0.124498,0.225055,9.768343,8.0,49.828434,24.046211,343.0,NaN,2.124,19.0,34.2,5 / 5,102527,2020-03-19 12:14:47:380
-0.100556,0.201113,9.763555,8.0,49.828434,24.046211,343.0,NaN,2.124,19.0,34.2,5 / 5,103027,2020-03-19 12:14:47:880
-0.124498,0.215478,9.773131,8.0,49.828434,24.046211,343.0,NaN,2.124,19.0,34.2,5 / 5,103527,2020-03-19 12:14:48:380
-0.11971,0.220267,9.744401,8.0,49.828434,24.046211,343.0,NaN,2.124,19.0,34.2,5 / 5,104027,2020-03-19 12:14:48:880
-0.105345,0.220267,9.792285,8.0,49.828434,24.046211,343.0,NaN,2.124,19.0,34.2,5 / 5,104526,2020-03-19 12:14:49:379
-0.086191,0.21069,9.773131,8.0,49.828434,24.046211,343.0,NaN,2.124,19.0,34.2,5 / 5,105027,2020-03-19 12:14:49:880
-0.114922,0.215478,9.768343,8.0,49.828434,24.046211,343.0,NaN,2.124,19.0,34.2,5 / 5,105526,2020-03-19 12:14:50:379
-0.062249,0.177171,9.768343,8.0,49.828434,24.046211,343.0,NaN,2.124,19.0,34.2,5 / 5,106027,2020-03-19 12:14:50:880
-0.100556,0.220267,9.77792,8.0,49.828434,24.046211,343.0,NaN,2.124,19.0,34.2,5 / 5,106527,2020-03-19 12:14:51:380
-0.095768,0.177171,9.792285,8.0,49.828434,24.046211,343.0,NaN,2.124,19.0,34.2,5 / 5,107027,2020-03-19 12:14:51:880
-0.086191,0.23942,9.77792,8.0,49.828434,24.046211,343.0,NaN,2.124,19.0,34.2,5 / 5,107527,2020-03-19 12:14:52:380
-0.100556,0.234632,9.763555,8.0,49.828434,24.046211,343.0,NaN,2.124,19.0,34.2,5 / 5,108027,2020-03-19 12:14:52:880
-0.067038,0.244209,9.773131,8.0,49.828434,24.046211,343.0,NaN,2.124,19.0,34.2,5 / 5,108526,2020-03-19 12:14:53:379
-0.110133,0.229843,9.792285,8.0,49.828434,24.046211,343.0,NaN,2.124,19.0,34.2,5 / 5,109027,2020-03-19 12:14:53:880
-0.105345,0.215478,9.782708,8.0,49.828434,24.046211,343.0,NaN,2.124,19.0,34.2,5 / 5,109527,2020-03-19 12:14:54:380
-0.100556,0.225055,9.768343,8.0,49.828434,24.046211,343.0,NaN,2.124,19.0,34.2,5 / 5,110026,2020-03-19 12:14:54:879
-0.100556,0.225055,9.753978,8.0,49.828434,24.046211,343.0,NaN,2.124,19.0,34.2,5 / 5,110527,2020-03-19 12:14:55:380
-0.095768,0.225055,9.787497,8.0,49.828434,24.046211,343.0,NaN,2.124,19.0,34.2,5 / 5,111027,2020-03-19 12:14:55:880
-0.110133,0.21069,9.758766,8.0,49.828434,24.046211,343.0,NaN,2.124,19.0,34.2,5 / 5,111527,2020-03-19 12:14:56:380
-0.11971,0.234632,9.758766,8.0,49.828434,24.046211,343.0,NaN,2.124,19.0,34.2,5 / 5,112027,2020-03-19 12:14:56:880
-0.105345,0.21069,9.763555,8.0,49.828434,24.046211,343.0,NaN,2.124,19.0,34.2,5 / 5,112527,2020-03-19 12:14:57:380
-0.110133,0.234632,9.782708,8.0,49.828434,24.046211,343.0,NaN,2.124,19.0,34.2,5 / 5,113027,2020-03-19 12:14:57:880
-0.105345,0.23942,9.739613,8.0,49.828434,24.046211,343.0,NaN,2.124,19.0,34.2,5 / 5,113527,2020-03-19 12:14:58:380
-0.129287,0.23942,9.782708,8.0,49.828434,24.046211,343.0,NaN,2.124,19.0,34.2,5 / 5,114027,2020-03-19 12:14:58:880
-0.11971,0.234632,9.792285,8.0,49.828434,24.046211,343.0,NaN,2.124,19.0,34.2,5 / 5,114526,2020-03-19 12:14:59:379
-0.095768,0.23942,9.739613,8.0,49.828434,24.046211,343.0,NaN,2.124,19.0,34.2,5 / 5,115026,2020-03-19 12:14:59:879
-0.09098,0.234632,9.773131,8.0,49.828434,24.046211,343.0,NaN,2.124,19.0,34.2,5 / 5,115526,2020-03-19 12:15:00:379
-0.105345,0.225055,9.758766,8.0,49.828434,24.046211,343.0,NaN,2.124,19.0,34.2,5 / 5,116027,2020-03-19 12:15:00:880
-0.114922,0.205901,9.768343,8.0,49.828434,24.046211,343.0,NaN,2.124,19.0,34.2,5 / 5,116527,2020-03-19 12:15:01:380
-0.134075,0.220267,9.811439,8.0,49.828434,24.046211,343.0,NaN,2.124,19.0,34.2,5 / 5,117026,2020-03-19 12:15:01:879
-0.110133,0.225055,9.749189,8.0,49.828434,24.046211,343.0,NaN,2.124,19.0,34.2,5 / 5,117527,2020-03-19 12:15:02:380
-0.100556,0.253785,9.763555,8.0,49.828434,24.046211,343.0,NaN,2.124,19.0,34.2,5 / 5,118026,2020-03-19 12:15:02:879
-0.105345,0.234632,9.792285,8.0,49.828434,24.046211,343.0,NaN,2.124,19.0,34.2,5 / 5,118526,2020-03-19 12:15:03:379
-0.09098,0.282516,9.77792,8.0,49.828434,24.046211,343.0,NaN,2.124,19.0,34.2,5 / 5,119027,2020-03-19 12:15:03:880
0.023942,0.177171,9.701305,8.0,49.828434,24.046211,343.0,NaN,2.124,19.0,34.2,5 / 5,119526,2020-03-19 12:15:04:379
-0.095768,0.268151,9.730036,8.0,49.828434,24.046211,343.0,NaN,2.124,19.0,34.2,5 / 5,120027,2020-03-19 12:15:04:880
-0.076614,0.181959,9.749189,8.0,49.828434,24.046211,343.0,NaN,2.124,19.0,34.2,5 / 5,120527,2020-03-19 12:15:05:380
0.019154,0.220267,9.749189,8.0,49.828434,24.046211,343.0,NaN,2.124,19.0,34.2,5 / 5,121027,2020-03-19 12:15:05:880
-0.138864,0.215478,9.763555,8.0,49.828434,24.046211,343.0,NaN,2.124,19.0,34.2,5 / 5,121527,2020-03-19 12:15:06:380
-0.134075,0.177171,9.77792,8.0,49.828434,24.046211,343.0,NaN,2.124,19.0,34.2,5 / 5,122026,2020-03-19 12:15:06:879
-0.086191,0.215478,9.782708,8.0,49.828434,24.046211,343.0,NaN,2.124,19.0,34.2,5 / 5,122527,2020-03-19 12:15:07:380
-0.162806,0.268151,9.768343,8.0,49.828434,24.046211,343.0,NaN,2.124,19.0,34.2,5 / 5,123026,2020-03-19 12:15:07:879
-0.110133,0.186748,9.768343,8.0,49.828434,24.046211,343.0,NaN,2.124,19.0,34.2,5 / 5,123527,2020-03-19 12:15:08:380
-0.316035,0.201113,9.576807,8.0,49.828434,24.046211,343.0,NaN,2.124,19.0,34.2,5 / 5,124027,2020-03-19 12:15:08:880
-0.770933,-0.641646,10.065224,8.0,49.828434,24.046211,343.0,NaN,2.124,19.0,34.2,5 / 5,124527,2020-03-19 12:15:09:380
0.02873,0.201113,9.864111,8.0,49.828434,24.046211,343.0,NaN,2.124,19.0,34.2,5 / 5,125026,2020-03-19 12:15:09:879
-2.896984,-1.532289,2.466028,8.0,49.828434,24.046211,343.0,NaN,2.124,19.0,34.2,5 / 5,125526,2020-03-19 12:15:10:379
0.967258,4.515465,7.963115,8.0,49.828434,24.046211,343.0,NaN,2.124,19.0,34.2,5 / 5,126026,2020-03-19 12:15:10:879
0.521936,4.237737,8.820239,8.0,49.828434,24.046211,343.0,NaN,2.124,19.0,34.2,5 / 5,126527,2020-03-19 12:15:11:380
0.59855,6.186618,7.422025,8.0,49.828434,24.046211,343.0,NaN,2.124,19.0,34.2,5 / 5,127027,2020-03-19 12:15:11:880
0.057461,5.554548,7.862559,8.0,49.828434,24.046211,343.0,NaN,2.124,19.0,34.2,5 / 5,127527,2020-03-19 12:15:12:380
0.857124,6.234502,7.862559,8.0,49.828434,24.046211,343.0,NaN,2.124,19.0,34.2,5 / 5,128028,2020-03-19 12:15:12:881
0.110133,4.764462,8.48984,8.0,49.828434,24.046211,343.0,NaN,2.124,19.0,34.2,5 / 5,128527,2020-03-19 12:15:13:380
0.603339,5.343858,8.145074,8.0,49.828434,24.046211,343.0,NaN,2.124,19.0,34.2,5 / 5,129026,2020-03-19 12:15:13:879
1.077391,6.019023,7.422025,8.0,49.828434,24.046211,343.0,NaN,2.124,19.0,34.2,5 / 5,129527,2020-03-19 12:15:14:380
0.799663,6.378154,7.402872,8.0,49.828434,24.046211,343.0,NaN,2.124,19.0,34.2,5 / 5,130026,2020-03-19 12:15:14:879
0.790087,6.378154,7.23049,8.0,49.828434,24.046211,343.0,NaN,2.124,19.0,34.2,5 / 5,130527,2020-03-19 12:15:15:380
1.747767,6.44998,4.841076,8.0,49.828434,24.046211,343.0,NaN,2.124,19.0,34.2,5 / 5,131027,2020-03-19 12:15:15:880
1.690306,6.545748,7.393295,8.0,49.828434,24.046211,343.0,NaN,2.124,19.0,34.2,5 / 5,131526,2020-03-19 12:15:16:379
2.035071,7.580043,5.592855,8.0,49.828434,24.046211,343.0,NaN,2.124,19.0,34.2,5 / 5,132026,2020-03-19 12:15:16:879
-0.445322,5.319916,3.423709,8.0,49.828434,24.046211,343.0,NaN,2.124,19.0,34.2,5 / 5,132527,2020-03-19 12:15:17:380
-0.368707,5.31034,7.52737,8.0,49.828434,24.046211,343.0,NaN,2.124,19.0,34.2,5 / 5,133026,2020-03-19 12:15:17:879
0.009577,5.66947,7.943961,8.0,49.828434,24.046211,343.0,NaN,2.124,19.0,34.2,5 / 5,133527,2020-03-19 12:15:18:380
0.23942,4.941633,7.848193,8.0,49.828434,24.046211,343.0,NaN,2.124,19.0,34.2,5 / 5,134027,2020-03-19 12:15:18:880
-0.368707,4.826711,8.245631,8.0,49.828434,24.046211,343.0,NaN,2.124,19.0,34.2,5 / 5,134527,2020-03-19 12:15:19:380
0.225055,5.027824,8.820239,8.0,49.828434,24.046211,343.0,NaN,2.124,19.0,34.2,5 / 5,135027,2020-03-19 12:15:19:880
1.44131,5.712566,7.469909,8.0,49.828434,24.046211,343.0,NaN,2.124,19.0,34.2,5 / 5,135527,2020-03-19 12:15:20:380
0.45011,4.697424,8.647857,8.0,49.828434,24.046211,343.0,NaN,2.124,19.0,34.2,5 / 5,136027,2020-03-19 12:15:20:880
0.043096,4.189853,8.647857,8.0,49.828434,24.046211,343.0,NaN,2.124,19.0,34.2,5 / 5,136526,2020-03-19 12:15:21:379
0.416591,4.007894,9.892841,8.0,49.828434,24.046211,343.0,NaN,2.124,19.0,34.2,0 / 0,137027,2020-03-19 12:15:21:880
-0.459687,3.96001,8.916007,8.0,49.828434,24.046211,343.0,NaN,2.124,19.0,34.2,0 / 0,137527,2020-03-19 12:15:22:380
-0.354342,4.065354,8.66701,8.0,49.828434,24.046211,343.0,NaN,2.124,19.0,34.2,0 / 0,138026,2020-03-19 12:15:22:879
-0.335188,4.036624,8.552089,8.0,49.828434,24.046211,343.0,NaN,2.124,19.0,34.2,0 / 0,138527,2020-03-19 12:15:23:380
-0.45011,3.8403,8.662222,8.0,49.828434,24.046211,343.0,NaN,2.124,19.0,34.2,0 / 1,139026,2020-03-19 12:15:23:879
-0.110133,3.969586,9.02614,8.0,49.828434,24.046211,343.0,NaN,2.124,19.0,34.2,0 / 1,139527,2020-03-19 12:15:24:380
-0.081403,4.003105,8.978256,8.0,49.828434,24.046211,343.0,NaN,2.124,19.0,34.2,0 / 1,140027,2020-03-19 12:15:24:880
0.124498,4.132392,9.102755,8.0,49.828434,24.046211,343.0,NaN,2.124,19.0,34.2,0 / 1,140527,2020-03-19 12:15:25:380
0.138864,4.280833,8.604761,8.0,49.828434,24.046211,343.0,NaN,2.124,19.0,34.2,5 / 5,141026,2020-03-19 12:15:25:879
-0.071826,4.323929,8.714894,8.0,49.828434,24.046211,343.0,NaN,2.124,19.0,34.2,5 / 5,141527,2020-03-19 12:15:26:380
0.02873,4.486734,8.939949,8.0,49.828434,24.046211,343.0,NaN,2.124,19.0,34.2,5 / 5,142027,2020-03-19 12:15:26:880
0.071826,4.343082,8.532935,8.0,49.828434,24.046211,343.0,NaN,2.124,19.0,34.2,5 / 5,142527,2020-03-19 12:15:27:380
0.052672,4.304775,8.944737,8.0,49.828434,24.046211,343.0,NaN,2.124,19.0,34.2,5 / 5,143026,2020-03-19 12:15:27:879
0.009577,4.280833,8.513782,8.0,49.828434,24.046211,343.0,NaN,2.124,19.0,34.2,5 / 5,143527,2020-03-19 12:15:28:380
-0.105345,4.180277,8.748413,8.0,49.828434,24.046211,343.0,NaN,2.124,19.0,34.2,5 / 5,144027,2020-03-19 12:15:28:880
0.086191,4.367024,8.939949,8.0,49.828434,24.046211,343.0,NaN,2.124,19.0,34.2,5 / 5,144527,2020-03-19 12:15:29:380
-0.062249,4.424485,8.116344,8.0,49.828434,24.046211,343.0,NaN,2.124,19.0,34.2,5 / 5,145026,2020-03-19 12:15:29:879
-0.100556,4.424485,8.499416,8.0,49.828434,24.046211,343.0,NaN,2.124,19.0,34.2,5 / 5,145527,2020-03-19 12:15:30:380
0.033519,4.242526,8.470686,8.0,49.828434,24.046211,343.0,NaN,2.124,19.0,34.2,5 / 5,146027,2020-03-19 12:15:30:880
-0.067038,4.338294,9.02614,8.0,49.828434,24.046211,343.0,NaN,2.124,19.0,34.2,5 / 5,146527,2020-03-19 12:15:31:380
0.047884,4.553772,8.221689,8.0,49.828434,24.046211,343.0,NaN,2.124,19.0,34.2,5 / 5,147026,2020-03-19 12:15:31:879
0.076614,4.156334,8.657434,8.0,49.828434,24.046211,343.0,NaN,2.124,19.0,34.2,5 / 5,147527,2020-03-19 12:15:32:380
-0.177171,4.055778,8.968679,8.0,49.828434,24.046211,343.0,NaN,2.124,19.0,34.2,5 / 5,148027,2020-03-19 12:15:32:880
0.110133,3.964798,8.844181,8.0,49.828434,24.046211,343.0,NaN,2.124,19.0,34.2,5 / 5,148527,2020-03-19 12:15:33:380
0.181959,4.252103,8.537724,8.0,49.828434,24.046211,343.0,NaN,2.124,19.0,34.2,5 / 5,149026,2020-03-19 12:15:33:879
0.234632,4.486734,8.729259,8.0,49.828434,24.046211,343.0,NaN,2.124,19.0,34.2,5 / 5,149527,2020-03-19 12:15:34:380
0.158017,4.266468,8.312668,8.0,49.828434,24.046211,343.0,NaN,2.124,19.0,34.2,5 / 5,150027,2020-03-19 12:15:34:880
0.071826,4.1707,8.317456,8.0,49.828434,24.046211,343.0,NaN,2.124,19.0,34.2,5 / 5,150527,2020-03-19 12:15:35:380
0.138864,4.01747,9.074024,8.0,49.828434,24.046211,343.0,NaN,2.124,19.0,34.2,5 / 5,151026,2020-03-19 12:15:35:879
0.196325,4.089296,8.441956,8.0,49.828434,24.046211,343.0,NaN,2.124,19.0,34.2,5 / 5,151527,2020-03-19 12:15:36:380
0.349553,4.204219,8.734048,8.0,49.828434,24.046211,343.0,NaN,2.124,19.0,34.2,5 / 5,152027,2020-03-19 12:15:36:880
0.158017,4.367024,8.647857,8.0,49.828434,24.046211,343.0,NaN,2.124,19.0,34.2,5 / 5,152526,2020-03-19 12:15:37:379
2.284068,4.400543,4.510676,8.0,49.828434,24.046211,343.0,NaN,2.124,19.0,34.2,5 / 5,153027,2020-03-19 12:15:37:880
3.739743,9.916783,2.901773,8.0,49.828434,24.046211,343.0,NaN,2.124,19.0,34.2,5 / 5,153526,2020-03-19 12:15:38:379
-1.072602,6.852206,7.307104,8.0,49.828434,24.046211,343.0,NaN,2.124,19.0,34.2,5 / 5,154027,2020-03-19 12:15:38:880
-0.052672,6.818687,6.995857,8.0,49.828434,24.046211,343.0,NaN,2.124,19.0,34.2,5 / 5,154527,2020-03-19 12:15:39:380
0.191536,7.345411,6.746861,8.0,49.828434,24.046211,343.0,NaN,2.124,19.0,34.2,5 / 5,155029,2020-03-19 12:15:39:882
-0.287304,7.082049,6.172252,8.0,49.828434,24.046211,343.0,NaN,2.124,19.0,34.2,5 / 5,155527,2020-03-19 12:15:40:380
-0.095768,7.244855,5.779603,8.0,49.828434,24.046211,343.0,NaN,2.124,19.0,34.2,5 / 5,156027,2020-03-19 12:15:40:880
-0.502782,6.406884,6.579266,8.0,49.828434,24.046211,343.0,NaN,2.124,19.0,34.2,5 / 5,156526,2020-03-19 12:15:41:379
-0.354342,6.665458,6.976704,8.0,49.828434,24.046211,343.0,NaN,2.124,19.0,34.2,5 / 5,157027,2020-03-19 12:15:41:880
-0.392649,6.66067,7.010223,8.0,49.828434,24.046211,343.0,NaN,2.124,19.0,34.2,5 / 5,157527,2020-03-19 12:15:42:380
-0.344765,6.828264,6.852206,8.0,49.828434,24.046211,343.0,NaN,2.124,19.0,34.2,5 / 5,158026,2020-03-19 12:15:42:879
-0.550666,6.933608,6.83784,8.0,49.828434,24.046211,343.0,NaN,2.124,19.0,34.2,5 / 5,158527,2020-03-19 12:15:43:380
-0.430956,6.938397,6.924032,8.0,49.828434,24.046211,343.0,NaN,2.124,19.0,34.2,5 / 5,159027,2020-03-19 12:15:43:880
-0.459687,6.943185,6.80911,8.0,49.828434,24.046211,343.0,NaN,2.124,19.0,34.2,5 / 5,159526,2020-03-19 12:15:44:379
-0.502782,7.134722,6.373365,8.0,49.828434,24.046211,343.0,NaN,2.124,19.0,34.2,5 / 5,160027,2020-03-19 12:15:44:880
-0.464475,6.976704,6.83784,8.0,49.828434,24.046211,343.0,NaN,2.124,19.0,34.2,5 / 5,160527,2020-03-19 12:15:45:380
-0.167594,6.947974,6.698977,8.0,49.828434,24.046211,343.0,NaN,2.124,19.0,34.2,5 / 5,161027,2020-03-19 12:15:45:880
-0.287304,7.393295,6.50744,8.0,49.828434,24.046211,343.0,NaN,2.124,19.0,34.2,5 / 5,161527,2020-03-19 12:15:46:380
-0.263362,6.976704,6.641516,8.0,49.828434,24.046211,343.0,NaN,2.124,19.0,34.2,5 / 5,162026,2020-03-19 12:15:46:879
-0.100556,7.192182,6.6894,8.0,49.828434,24.046211,343.0,NaN,2.124,19.0,34.2,5 / 5,162527,2020-03-19 12:15:47:380
-0.339977,6.675035,7.220913,8.0,49.828434,24.046211,343.0,NaN,2.124,19.0,34.2,5 / 5,163027,2020-03-19 12:15:47:880
1.991976,7.383718,5.90889,8.0,49.828434,24.046211,343.0,NaN,2.124,19.0,34.2,5 / 5,163526,2020-03-19 12:15:48:379
2.020706,7.680599,7.115568,8.0,49.828434,24.046211,343.0,NaN,2.124,19.0,34.2,5 / 5,164026,2020-03-19 12:15:48:879
0.105345,7.16824,6.756438,8.0,49.828434,24.046211,343.0,NaN,2.124,19.0,34.2,5 / 5,164527,2020-03-19 12:15:49:380
-0.201113,6.440403,7.264008,8.0,49.828434,24.046211,343.0,NaN,2.124,19.0,34.2,5 / 5,165026,2020-03-19 12:15:49:879
0.181959,6.919243,7.240066,8.0,49.828434,24.046211,343.0,NaN,2.124,19.0,34.2,5 / 5,165527,2020-03-19 12:15:50:380
0.837971,7.699753,6.033388,8.0,49.828434,24.046211,343.0,NaN,2.124,19.0,34.2,5 / 5,166026,2020-03-19 12:15:50:879
0.957681,7.49864,6.153099,8.0,49.828434,24.046211,343.0,NaN,2.124,19.0,34.2,5 / 5,166527,2020-03-19 12:15:51:380
0.943315,7.350199,6.646304,8.0,49.828434,24.046211,343.0,NaN,2.124,19.0,34.2,5 / 5,167027,2020-03-19 12:15:51:880
0.727837,7.541735,6.114791,8.0,49.828434,24.046211,343.0,NaN,2.124,19.0,34.2,5 / 5,167526,2020-03-19 12:15:52:379
0.80924,7.192182,6.531382,8.0,49.828434,24.046211,343.0,NaN,2.124,19.0,34.2,5 / 5,168027,2020-03-19 12:15:52:880
0.909797,7.13951,6.220136,8.0,49.828434,24.046211,343.0,NaN,2.124,19.0,34.2,5 / 5,168527,2020-03-19 12:15:53:380
0.828394,7.182606,6.593632,8.0,49.828434,24.046211,343.0,NaN,2.124,19.0,34.2,5 / 5,169026,2020-03-19 12:15:53:879
0.847547,7.474698,6.105214,8.0,49.828434,24.046211,343.0,NaN,2.124,19.0,34.2,5 / 5,169527,2020-03-19 12:15:54:380
0.823605,7.115568,6.540959,8.0,49.828434,24.046211,343.0,NaN,2.124,19.0,34.2,5 / 5,170027,2020-03-19 12:15:54:880
0.938527,6.967127,6.756438,8.0,49.828434,24.046211,343.0,NaN,2.124,19.0,34.2,5 / 5,170527,2020-03-19 12:15:55:380
0.957681,6.876148,6.938397,8.0,49.828434,24.046211,343.0,NaN,2.124,19.0,34.2,5 / 5,171027,2020-03-19 12:15:55:880
0.919373,6.828264,6.80911,8.0,49.828434,24.046211,343.0,NaN,2.124,19.0,34.2,5 / 5,171527,2020-03-19 12:15:56:380
0.881066,6.818687,6.95755,8.0,49.828434,24.046211,343.0,NaN,2.124,19.0,34.2,5 / 5,172026,2020-03-19 12:15:56:879
0.785298,6.83784,6.904878,8.0,49.828434,24.046211,343.0,NaN,2.124,19.0,34.2,5 / 5,172527,2020-03-19 12:15:57:380
0.842759,7.067683,6.603208,8.0,49.828434,24.046211,343.0,NaN,2.124,19.0,34.2,5 / 5,173027,2020-03-19 12:15:57:880
0.814029,7.015011,6.646304,8.0,49.828434,24.046211,343.0,NaN,2.124,19.0,34.2,5 / 5,173526,2020-03-19 12:15:58:379
0.742203,6.943185,6.770803,8.0,49.828434,24.046211,343.0,NaN,2.124,19.0,34.2,5 / 5,174027,2020-03-19 12:15:58:880
0.656011,7.029376,6.66067,8.0,49.828434,24.046211,343.0,NaN,2.124,19.0,34.2,5 / 5,174527,2020-03-19 12:15:59:380
0.593762,7.101202,6.804322,8.0,49.828434,24.046211,343.0,NaN,2.124,19.0,34.2,5 / 5,175027,2020-03-19 12:15:59:880
0.474052,7.101202,6.636728,8.0,49.828434,24.046211,343.0,NaN,2.124,19.0,34.2,5 / 5,175527,2020-03-19 12:16:00:380
0.536301,7.07726,6.694188,8.0,49.828434,24.046211,343.0,NaN,2.124,19.0,34.2,5 / 5,176026,2020-03-19 12:16:00:879
0.493206,6.962339,6.727707,8.0,49.828434,24.046211,343.0,NaN,2.124,19.0,34.2,5 / 5,176527,2020-03-19 12:16:01:380
0.459687,7.000646,6.646304,8.0,49.828434,24.046211,343.0,NaN,2.124,19.0,34.2,5 / 5,177026,2020-03-19 12:16:01:879
0.277727,6.694188,6.751649,8.0,49.828434,24.046211,343.0,NaN,2.124,19.0,34.2,5 / 5,177526,2020-03-19 12:16:02:379
0.464475,6.761226,7.019799,8.0,49.828434,24.046211,343.0,NaN,2.124,19.0,34.2,5 / 5,178027,2020-03-19 12:16:02:880
0.474052,6.617574,6.770803,8.0,49.828434,24.046211,343.0,NaN,2.124,19.0,34.2,5 / 5,178526,2020-03-19 12:16:03:379
0.344765,6.627151,7.359776,8.0,49.828434,24.046211,343.0,NaN,2.124,19.0,34.2,5 / 5,179026,2020-03-19 12:16:03:879
0.397437,6.708554,7.331046,8.0,49.828434,24.046211,343.0,NaN,2.124,19.0,34.2,5 / 5,179527,2020-03-19 12:16:04:380
0.062249,6.440403,6.986281,8.0,49.828434,24.046211,343.0,NaN,2.124,19.0,34.2,5 / 5,180027,2020-03-19 12:16:04:880
0.110133,6.56969,7.211336,8.0,49.828434,24.046211,343.0,NaN,2.124,19.0,34.2,5 / 5,180527,2020-03-19 12:16:05:380
0.158017,6.56969,7.278373,8.0,49.828434,24.046211,343.0,NaN,2.124,19.0,34.2,5 / 5,181027,2020-03-19 12:16:05:880
0.172383,6.469133,6.986281,8.0,49.828434,24.046211,343.0,NaN,2.124,19.0,34.2,5 / 5,181527,2020-03-19 12:16:06:380
0.306458,6.50744,7.441179,8.0,49.828434,24.046211,343.0,NaN,2.124,19.0,34.2,5 / 5,182027,2020-03-19 12:16:06:880
0.325611,6.435614,7.115568,8.0,49.828434,24.046211,343.0,NaN,2.124,19.0,34.2,5 / 5,182527,2020-03-19 12:16:07:380
0.68953,6.488287,6.995857,8.0,49.828434,24.046211,343.0,NaN,2.124,19.0,34.2,5 / 5,183027,2020-03-19 12:16:07:880
0.799663,6.421249,7.005434,8.0,49.828434,24.046211,343.0,NaN,2.124,19.0,34.2,5 / 5,183527,2020-03-19 12:16:08:380
0.742203,6.277597,7.23049,8.0,49.828434,24.046211,343.0,NaN,2.124,19.0,34.2,5 / 5,184027,2020-03-19 12:16:08:880
0.603339,6.258444,7.340623,8.0,49.828434,24.046211,343.0,NaN,2.124,19.0,34.2,5 / 5,184527,2020-03-19 12:16:09:380
0.579397,6.244078,7.254431,8.0,49.828434,24.046211,343.0,NaN,2.124,19.0,34.2,5 / 5,185026,2020-03-19 12:16:09:879
0.368707,6.363788,7.292739,8.0,49.828434,24.046211,343.0,NaN,2.124,19.0,34.2,5 / 5,185527,2020-03-19 12:16:10:380
0.402226,6.406884,7.637504,8.0,49.828434,24.046211,343.0,NaN,2.124,19.0,34.2,5 / 5,186027,2020-03-19 12:16:10:880
0.191536,6.488287,7.402872,8.0,49.828434,24.046211,343.0,NaN,2.124,19.0,34.2,5 / 5,186527,2020-03-19 12:16:11:380
0.047884,6.694188,7.273585,8.0,49.828434,24.046211,343.0,NaN,2.124,19.0,34.2,5 / 5,187027,2020-03-19 12:16:11:880
0.086191,6.368577,7.278373,8.0,49.828434,24.046211,343.0,NaN,2.124,19.0,34.2,5 / 5,187527,2020-03-19 12:16:12:380
-0.454898,6.153099,7.149087,8.0,49.828434,24.046211,343.0,NaN,2.124,19.0,34.2,5 / 5,188026,2020-03-19 12:16:12:879
-0.277727,4.946421,8.504205,8.0,49.828434,24.046211,343.0,NaN,2.124,19.0,34.2,5 / 5,188527,2020-03-19 12:16:13:380
-0.076614,4.917691,8.552089,8.0,49.828434,24.046211,343.0,NaN,2.124,19.0,34.2,5 / 5,189026,2020-03-19 12:16:13:879
0.191536,5.066131,8.42759,8.0,49.828434,24.046211,343.0,NaN,2.124,19.0,34.2,0 / 0,189526,2020-03-19 12:16:14:379
0.430956,4.515465,8.743625,8.0,49.828434,24.046211,343.0,NaN,2.124,19.0,34.2,0 / 0,190027,2020-03-19 12:16:14:880
-1.8579,5.439626,6.363788,8.0,49.828434,24.046211,343.0,NaN,2.124,19.0,34.2,0 / 0,190527,2020-03-19 12:16:15:380
-0.234632,5.602432,7.742849,8.0,49.828434,24.046211,343.0,NaN,2.124,19.0,34.2,0 / 0,191027,2020-03-19 12:16:15:880
-0.383072,5.377377,8.111555,8.0,49.828434,24.046211,343.0,NaN,2.124,19.0,34.2,0 / 1,191527,2020-03-19 12:16:16:380
-0.349553,5.315128,8.231265,8.0,49.828434,24.046211,343.0,NaN,2.124,19.0,34.2,0 / 2,192027,2020-03-19 12:16:16:880
-0.536301,5.372589,7.939173,8.0,49.828434,24.046211,343.0,NaN,2.124,19.0,34.2,0 / 2,192527,2020-03-19 12:16:17:380
-0.454898,5.391742,8.384495,8.0,49.828434,24.046211,343.0,NaN,2.124,19.0,34.2,0 / 2,193027,2020-03-19 12:16:17:880
-0.517148,5.444415,8.130709,8.0,49.828434,24.046211,343.0,NaN,2.124,19.0,34.2,0 / 2,193527,2020-03-19 12:16:18:380
-0.584185,5.410896,8.125921,8.0,49.828434,24.046211,343.0,NaN,2.124,19.0,34.2,3 / 3,194027,2020-03-19 12:16:18:880
-0.579397,5.396531,8.054095,8.0,49.828434,24.046211,343.0,NaN,2.124,19.0,34.2,5 / 5,194527,2020-03-19 12:16:19:380
-0.430956,5.334282,8.212112,8.0,49.828434,24.046211,343.0,NaN,2.124,19.0,34.2,5 / 5,195027,2020-03-19 12:16:19:880
-0.588974,5.291186,8.303091,8.0,49.828434,24.046211,343.0,NaN,2.124,19.0,34.2,7 / 7,195527,2020-03-19 12:16:20:380
-0.56982,5.57849,7.824251,8.0,49.828434,24.046211,343.0,NaN,2.124,19.0,34.2,7 / 7,196026,2020-03-19 12:16:20:879
-0.627281,5.645528,7.94875,8.0,49.828434,24.046211,343.0,NaN,2.124,19.0,34.2,7 / 7,196527,2020-03-19 12:16:21:380
-0.550666,5.64074,8.283938,8.0,49.828434,24.046211,343.0,NaN,2.124,19.0,34.2,7 / 7,197027,2020-03-19 12:16:21:880
-0.565032,5.626374,7.900866,8.0,49.828434,24.046211,343.0,NaN,2.124,19.0,34.2,7 / 7,197527,2020-03-19 12:16:22:380
-0.646434,5.688624,7.824251,8.0,49.828434,24.046211,343.0,NaN,2.124,19.0,34.2,7 / 7,198027,2020-03-19 12:16:22:880
-0.608127,5.516241,7.97748,8.0,49.828434,24.046211,343.0,NaN,2.124,19.0,34.2,7 / 7,198527,2020-03-19 12:16:23:380
-0.56982,5.631162,7.805098,8.0,49.828434,24.046211,343.0,NaN,2.124,19.0,34.2,7 / 7,199027,2020-03-19 12:16:23:880
-0.612916,5.463568,8.039729,8.0,49.828434,24.046211,343.0,NaN,2.124,19.0,34.2,7 / 7,199527,2020-03-19 12:16:24:380
-0.708684,5.501876,8.231265,8.0,49.828434,24.046211,343.0,NaN,2.124,19.0,34.2,7 / 7,200026,2020-03-19 12:16:24:879
-0.517148,5.702989,7.752425,8.0,49.828434,24.046211,343.0,NaN,2.124,19.0,34.2,7 / 7,200526,2020-03-19 12:16:25:379
1.853112,5.473145,8.212112,8.0,49.828434,24.046211,343.0,NaN,2.124,19.0,34.2,7 / 7,201027,2020-03-19 12:16:25:880
-0.871489,5.846641,6.129156,8.0,49.828434,24.046211,343.0,NaN,2.124,19.0,34.2,7 / 7,201527,2020-03-19 12:16:26:380
-0.502782,5.731719,7.852982,8.0,49.828434,24.046211,343.0,NaN,2.124,19.0,34.2,7 / 7,202026,2020-03-19 12:16:26:879
-1.177947,5.559336,7.431602,8.0,49.828434,24.046211,343.0,NaN,2.124,19.0,34.2,7 / 7,202527,2020-03-19 12:16:27:380
-1.561019,5.947197,6.852206,8.0,49.828434,24.046211,343.0,NaN,2.124,19.0,34.2,7 / 7,203027,2020-03-19 12:16:27:880
-1.240196,6.454768,6.641516,8.0,49.828434,24.046211,343.0,NaN,2.124,19.0,34.2,0 / 0,203527,2020-03-19 12:16:28:380
-0.282516,6.828264,6.785168,8.0,49.828434,24.046211,343.0,NaN,2.124,19.0,34.2,0 / 0,204028,2020-03-19 12:16:28:881
0.339977,7.015011,7.086837,8.0,49.828434,24.046211,343.0,NaN,2.124,19.0,34.2,0 / 1,204527,2020-03-19 12:16:29:380
0.186748,6.904878,6.502652,8.0,49.828434,24.046211,343.0,NaN,2.124,19.0,34.2,0 / 1,205026,2020-03-19 12:16:29:879
-1.086968,5.947197,8.360553,8.0,49.828434,24.046211,343.0,NaN,2.124,19.0,34.2,0 / 4,205527,2020-03-19 12:16:30:380
0.440533,2.360683,9.193734,8.0,49.828434,24.046211,343.0,NaN,2.124,19.0,34.2,0 / 4,206026,2020-03-19 12:16:30:879
2.341529,-0.995988,10.515334,8.0,49.828434,24.046211,343.0,NaN,2.124,19.0,34.2,6 / 6,206527,2020-03-19 12:16:31:380
-1.728614,-0.387861,10.01734,8.0,49.828434,24.046211,343.0,NaN,2.124,19.0,34.2,6 / 6,207027,2020-03-19 12:16:31:880
0.244209,0.019154,9.753978,8.0,49.828434,24.046211,343.0,NaN,2.124,19.0,34.2,9 / 9,207527,2020-03-19 12:16:32:380
0.272939,-0.004788,9.797073,8.0,49.828434,24.046211,343.0,NaN,2.124,19.0,34.2,9 / 9,208027,2020-03-19 12:16:32:880
0.258574,-0.057461,9.763555,8.0,49.828434,24.046211,343.0,NaN,2.124,19.0,34.2,9 / 9,208527,2020-03-19 12:16:33:380
0.234632,-0.02873,9.773131,8.0,49.828434,24.046211,343.0,NaN,2.124,19.0,34.2,9 / 9,209026,2020-03-19 12:16:33:879
0.23942,0.004788,9.811439,8.0,49.828434,24.046211,343.0,NaN,2.124,19.0,34.2,9 / 9,209527,2020-03-19 12:16:34:380
0.292093,-0.09098,9.720459,8.0,49.828434,24.046211,343.0,NaN,2.124,19.0,34.2,9 / 9,210027,2020-03-19 12:16:34:880
0.292093,-0.004788,9.749189,8.0,49.828434,24.046211,343.0,NaN,2.124,19.0,34.2,9 / 9,210527,2020-03-19 12:16:35:380
0.248997,-0.043096,9.763555,8.0,49.828434,24.046211,343.0,NaN,2.124,19.0,34.2,9 / 9,211027,2020-03-19 12:16:35:880
0.234632,-0.062249,9.758766,8.0,49.828434,24.046211,343.0,NaN,2.124,19.0,34.2,9 / 9,211527,2020-03-19 12:16:36:380
0.234632,-0.043096,9.77792,8.0,49.828434,24.046211,343.0,NaN,2.124,19.0,34.2,9 / 9,212027,2020-03-19 12:16:36:880
0.23942,-0.014365,9.768343,8.0,49.828434,24.046211,343.0,NaN,2.124,19.0,34.2,9 / 9,212527,2020-03-19 12:16:37:380
0.268151,-0.014365,9.787497,8.0,49.828434,24.046211,343.0,NaN,2.124,19.0,34.2,9 / 9,213027,2020-03-19 12:16:37:880
0.268151,-0.019154,9.739613,8.0,49.828434,24.046211,343.0,NaN,2.124,19.0,34.2,9 / 9,213526,2020-03-19 12:16:38:379
0.272939,-0.004788,9.753978,8.0,49.828434,24.046211,343.0,NaN,2.124,19.0,34.2,9 / 9,214027,2020-03-19 12:16:38:880
0.225055,-0.014365,9.763555,8.0,49.828434,24.046211,343.0,NaN,2.124,19.0,34.2,9 / 9,214527,2020-03-19 12:16:39:380
0.234632,-0.014365,9.792285,8.0,49.828434,24.046211,343.0,NaN,2.124,19.0,34.2,9 / 9,215027,2020-03-19 12:16:39:880
0.225055,-0.023942,9.753978,8.0,49.828434,24.046211,343.0,NaN,2.124,19.0,34.2,9 / 9,215526,2020-03-19 12:16:40:379
0.244209,0.004788,9.768343,8.0,49.828434,24.046211,343.0,NaN,2.124,19.0,34.2,9 / 9,216027,2020-03-19 12:16:40:880
0.282516,-0.023942,9.773131,8.0,49.828434,24.046211,343.0,NaN,2.124,19.0,34.2,9 / 9,216527,2020-03-19 12:16:41:380
0.268151,-0.02873,9.768343,8.0,49.828434,24.046211,343.0,NaN,2.124,19.0,34.2,9 / 9,217026,2020-03-19 12:16:41:879
0.292093,-0.047884,9.782708,8.0,49.828434,24.046211,343.0,NaN,2.124,19.0,34.2,9 / 9,217527,2020-03-19 12:16:42:380
0.258574,-0.047884,9.782708,8.0,49.828434,24.046211,343.0,NaN,2.124,19.0,34.2,9 / 9,218027,2020-03-19 12:16:42:880
0.220267,-0.057461,9.773131,8.0,49.828434,24.046211,343.0,NaN,2.124,19.0,34.2,9 / 9,218527,2020-03-19 12:16:43:380
0.301669,-0.033519,9.739613,8.0,49.828434,24.046211,343.0,NaN,2.124,19.0,34.2,9 / 9,219027,2020-03-19 12:16:43:880
0.277727,-0.02873,9.768343,8.0,49.828434,24.046211,343.0,NaN,2.124,19.0,34.2,9 / 9,219527,2020-03-19 12:16:44:380
0.263362,-0.009577,9.763555,8.0,49.828434,24.046211,343.0,NaN,2.124,19.0,34.2,9 / 9,220027,2020-03-19 12:16:44:880
0.248997,-0.004788,9.768343,8.0,49.828434,24.046211,343.0,NaN,2.124,19.0,34.2,9 / 9,220527,2020-03-19 12:16:45:380
0.277727,-0.047884,9.753978,8.0,49.828434,24.046211,343.0,NaN,2.124,19.0,34.2,9 / 9,221026,2020-03-19 12:16:45:879
0.272939,-0.019154,9.787497,8.0,49.828434,24.046211,343.0,NaN,2.124,19.0,34.2,9 / 9,221527,2020-03-19 12:16:46:380
0.268151,-0.076614,9.787497,8.0,49.828434,24.046211,343.0,NaN,2.124,19.0,34.2,9 / 9,222027,2020-03-19 12:16:46:880
0.248997,-0.038307,9.773131,8.0,49.828434,24.046211,343.0,NaN,2.124,19.0,34.2,9 / 9,222527,2020-03-19 12:16:47:380
0.234632,0.004788,9.739613,8.0,49.828434,24.046211,343.0,NaN,2.124,19.0,34.2,9 / 9,223027,2020-03-19 12:16:47:880
0.244209,-0.043096,9.739613,8.0,49.828434,24.046211,343.0,NaN,2.124,19.0,34.2,9 / 9,223527,2020-03-19 12:16:48:380
0.181959,0.038307,9.749189,8.0,49.828434,24.046211,343.0,NaN,2.124,19.0,34.2,9 / 9,224026,2020-03-19 12:16:48:879
0.186748,0.019154,9.768343,8.0,49.828434,24.046211,343.0,NaN,2.124,19.0,34.2,9 / 9,224527,2020-03-19 12:16:49:380
0.191536,0.02873,9.787497,8.0,49.828434,24.046211,343.0,NaN,2.124,19.0,34.2,9 / 9,225027,2020-03-19 12:16:49:880
0.258574,-0.014365,9.773131,8.0,49.828434,24.046211,343.0,NaN,2.124,19.0,34.2,9 / 9,225527,2020-03-19 12:16:50:380
0.162806,0.019154,9.801862,8.0,49.828434,24.046211,343.0,NaN,2.124,19.0,34.2,9 / 9,226027,2020-03-19 12:16:50:880
0.292093,-0.004788,9.768343,8.0,49.828434,24.046211,343.0,NaN,2.124,19.0,34.2,9 / 9,226527,2020-03-19 12:16:51:380
0.411803,-0.105345,9.77792,8.0,49.828434,24.046211,343.0,NaN,2.124,19.0,34.2,9 / 9,227026,2020-03-19 12:16:51:879
0.248997,0.004788,9.773131,8.0,49.828434,24.046211,343.0,NaN,2.124,19.0,34.2,9 / 9,227527,2020-03-19 12:16:52:380
0.378284,-0.023942,9.768343,8.0,49.828434,24.046211,343.0,NaN,2.124,19.0,34.2,9 / 9,228027,2020-03-19 12:16:52:880
0.344765,0.014365,9.773131,8.0,49.828434,24.046211,343.0,NaN,2.124,19.0,34.2,9 / 9,228527,2020-03-19 12:16:53:380
0.244209,-0.004788,9.734824,8.0,49.828434,24.046211,343.0,NaN,2.124,19.0,34.2,9 / 9,229027,2020-03-19 12:16:53:880
0.440533,-0.043096,9.758766,8.0,49.828434,24.046211,343.0,NaN,2.124,19.0,34.2,9 / 9,229527,2020-03-19 12:16:54:380
0.272939,-0.019154,9.744401,8.0,49.828434,24.046211,343.0,NaN,2.124,19.0,34.2,9 / 9,230027,2020-03-19 12:16:54:880
0.253785,-0.004788,9.792285,8.0,49.828434,24.046211,343.0,NaN,2.124,19.0,34.2,9 / 9,230527,2020-03-19 12:16:55:380
0.172383,0.033519,9.753978,8.0,49.828434,24.046211,343.0,NaN,2.124,19.0,34.2,9 / 9,231027,2020-03-19 12:16:55:880
0.272939,-0.033519,9.792285,8.0,49.828434,24.046211,343.0,NaN,2.124,19.0,34.2,9 / 9,231527,2020-03-19 12:16:56:380
0.21069,-0.158017,9.811439,8.0,49.828434,24.046211,343.0,NaN,2.124,19.0,34.2,9 / 9,232027,2020-03-19 12:16:56:880
0.268151,-0.023942,9.773131,8.0,49.828434,24.046211,343.0,NaN,2.124,19.0,34.2,9 / 9,232526,2020-03-19 12:16:57:379
0.263362,0.009577,9.763555,8.0,49.828434,24.046211,343.0,NaN,2.124,19.0,34.2,9 / 9,233027,2020-03-19 12:16:57:880
0.277727,-0.062249,9.773131,8.0,49.828434,24.046211,343.0,NaN,2.124,19.0,34.2,9 / 9,233527,2020-03-19 12:16:58:380
0.263362,-0.009577,9.768343,8.0,49.828434,24.046211,343.0,NaN,2.124,19.0,34.2,9 / 9,234026,2020-03-19 12:16:58:879
0.186748,-0.062249,9.763555,8.0,49.828434,24.046211,343.0,NaN,2.124,19.0,34.2,9 / 9,234527,2020-03-19 12:16:59:380
0.287304,0.258574,9.801862,8.0,49.828434,24.046211,343.0,NaN,2.124,19.0,34.2,9 / 9,235027,2020-03-19 12:16:59:880
0.42138,0.062249,9.763555,8.0,49.828434,24.046211,343.0,NaN,2.124,19.0,34.2,9 / 9,235526,2020-03-19 12:17:00:379
0.282516,-0.038307,9.715671,8.0,49.828434,24.046211,343.0,NaN,2.124,19.0,34.2,9 / 9,236026,2020-03-19 12:17:00:879
0.253785,-0.014365,9.763555,8.0,49.828434,24.046211,343.0,NaN,2.124,19.0,34.2,9 / 9,236527,2020-03-19 12:17:01:380
0.172383,-0.086191,9.801862,8.0,49.828434,24.046211,343.0,NaN,2.124,19.0,34.2,9 / 9,237027,2020-03-19 12:17:01:880
0.253785,-0.095768,9.753978,8.0,49.828434,24.046211,343.0,NaN,2.124,19.0,34.2,9 / 9,237527,2020-03-19 12:17:02:380
0.138864,0.019154,9.792285,8.0,49.828434,24.046211,343.0,NaN,2.124,19.0,34.2,9 / 9,238027,2020-03-19 12:17:02:880
0.306458,-0.129287,9.763555,8.0,49.828434,24.046211,343.0,NaN,2.124,19.0,34.2,9 / 9,238527,2020-03-19 12:17:03:380
0.282516,0.162806,9.734824,8.0,49.828434,24.046211,343.0,NaN,2.124,19.0,34.2,9 / 9,239027,2020-03-19 12:17:03:880
0.186748,-0.301669,9.792285,8.0,49.828434,24.046211,343.0,NaN,2.124,19.0,34.2,9 / 9,239527,2020-03-19 12:17:04:380
0.272939,-0.043096,9.768343,8.0,49.828434,24.046211,343.0,NaN,2.124,19.0,34.2,9 / 9,240027,2020-03-19 12:17:04:880
0.234632,-0.014365,9.816227,8.0,49.828434,24.046211,343.0,NaN,2.124,19.0,34.2,9 / 9,240527,2020-03-19 12:17:05:380
0.244209,-0.215478,9.773131,8.0,49.828434,24.046211,343.0,NaN,2.124,19.0,34.2,9 / 9,241027,2020-03-19 12:17:05:880
0.234632,-0.086191,9.787497,8.0,49.828434,24.046211,343.0,NaN,2.124,19.0,34.2,9 / 9,241527,2020-03-19 12:17:06:380
0.215478,-0.076614,9.758766,8.0,49.828434,24.046211,343.0,NaN,2.124,19.0,34.2,9 / 9,242027,2020-03-19 12:17:06:880
0.287304,-0.076614,9.763555,8.0,49.828434,24.046211,343.0,NaN,2.124,19.0,34.2,9 / 9,242527,2020-03-19 12:17:07:380
0.186748,-0.043096,9.744401,8.0,49.828434,24.046211,343.0,NaN,2.124,19.0,34.2,9 / 9,243027,2020-03-19 12:17:07:880
0.325611,0.023942,9.773131,8.0,49.828434,24.046211,343.0,NaN,2.124,19.0,34.2,9 / 9,243526,2020-03-19 12:17:08:379
0.215478,-0.023942,9.725247,8.0,49.828434,24.046211,343.0,NaN,2.124,19.0,34.2,9 / 9,244027,2020-03-19 12:17:08:880
0.272939,-0.110133,9.77792,8.0,49.828434,24.046211,343.0,NaN,2.124,19.0,34.2,9 / 9,244526,2020-03-19 12:17:09:379
0.263362,-0.105345,9.801862,8.0,49.828434,24.046211,343.0,NaN,2.124,19.0,34.2,9 / 9,245027,2020-03-19 12:17:09:880
0.263362,-0.067038,9.773131,8.0,49.828434,24.046211,343.0,NaN,2.124,19.0,34.2,9 / 9,245527,2020-03-19 12:17:10:380
0.282516,-0.086191,9.792285,8.0,49.828434,24.046211,343.0,NaN,2.124,19.0,34.2,9 / 9,246027,2020-03-19 12:17:10:880
0.229843,-0.047884,9.787497,8.0,49.828434,24.046211,343.0,NaN,2.124,19.0,34.2,9 / 9,246527,2020-03-19 12:17:11:380
0.248997,-0.057461,9.749189,8.0,49.828434,24.046211,343.0,NaN,2.124,19.0,34.2,9 / 9,247027,2020-03-19 12:17:11:880
0.258574,-0.009577,9.768343,8.0,49.828434,24.046211,343.0,NaN,2.124,19.0,34.2,9 / 9,247527,2020-03-19 12:17:12:380
0.263362,-0.038307,9.768343,8.0,49.828434,24.046211,343.0,NaN,2.124,19.0,34.2,9 / 9,248026,2020-03-19 12:17:12:879
0.225055,-0.067038,9.768343,8.0,49.828434,24.046211,343.0,NaN,2.124,19.0,34.2,9 / 9,248526,2020-03-19 12:17:13:379
0.229843,-0.019154,9.768343,8.0,49.828434,24.046211,343.0,NaN,2.124,19.0,34.2,9 / 9,249027,2020-03-19 12:17:13:880
0.272939,-0.047884,9.753978,8.0,49.828434,24.046211,343.0,NaN,2.124,19.0,34.2,9 / 9,249527,2020-03-19 12:17:14:380
0.320823,0.004788,9.758766,8.0,49.828434,24.046211,343.0,NaN,2.124,19.0,34.2,9 / 9,250027,2020-03-19 12:17:14:880
0.248997,-0.052672,9.787497,8.0,49.828434,24.046211,343.0,NaN,2.124,19.0,34.2,9 / 9,250527,2020-03-19 12:17:15:380
0.411803,-0.320823,9.878476,8.0,49.828434,24.046211,343.0,NaN,2.124,19.0,34.2,9 / 9,251026,2020-03-19 12:17:15:879
0.397437,0.258574,9.744401,8.0,49.828434,24.046211,343.0,NaN,2.124,19.0,34.2,9 / 9,251526,2020-03-19 12:17:16:379
0.258574,0.033519,9.77792,8.0,49.828434,24.046211,343.0,NaN,2.124,19.0,34.2,9 / 9,252027,2020-03-19 12:17:16:880
0.282516,-0.014365,9.753978,8.0,49.828434,24.046211,343.0,NaN,2.124,19.0,34.2,9 / 9,252527,2020-03-19 12:17:17:380
0.234632,-0.043096,9.782708,8.0,49.828434,24.046211,343.0,NaN,2.124,19.0,34.2,9 / 9,253027,2020-03-19 12:17:17:880
0.430956,-0.014365,9.773131,8.0,49.828434,24.046211,343.0,NaN,2.124,19.0,34.2,9 / 9,253527,2020-03-19 12:17:18:380
0.268151,-0.047884,9.787497,8.0,49.828434,24.046211,343.0,NaN,2.124,19.0,34.2,9 / 9,254027,2020-03-19 12:17:18:880
0.234632,-0.023942,9.782708,8.0,49.828434,24.046211,343.0,NaN,2.124,19.0,34.2,9 / 9,254527,2020-03-19 12:17:19:380
0.277727,-0.014365,9.749189,8.0,49.828434,24.046211,343.0,NaN,2.124,19.0,34.2,9 / 9,255027,2020-03-19 12:17:19:880
0.263362,-0.014365,9.787497,8.0,49.828434,24.046211,343.0,NaN,2.124,19.0,34.2,9 / 9,255527,2020-03-19 12:17:20:380
0.292093,-0.057461,9.773131,8.0,49.828434,24.046211,343.0,NaN,2.124,19.0,34.2,9 / 9,256027,2020-03-19 12:17:20:880
0.258574,-0.062249,9.734824,8.0,49.828434,24.046211,343.0,NaN,2.124,19.0,34.2,9 / 9,256526,2020-03-19 12:17:21:379
0.263362,0.019154,9.753978,8.0,49.828434,24.046211,343.0,NaN,2.124,19.0,34.2,9 / 9,257026,2020-03-19 12:17:21:879
0.181959,0.014365,9.744401,8.0,49.828434,24.046211,343.0,NaN,2.124,19.0,34.2,9 / 9,257527,2020-03-19 12:17:22:380
0.277727,-0.014365,9.77792,8.0,49.828434,24.046211,343.0,NaN,2.124,19.0,34.2,9 / 9,258026,2020-03-19 12:17:22:879
0.205901,0.019154,9.768343,8.0,49.828434,24.046211,343.0,NaN,2.124,19.0,34.2,9 / 9,258526,2020-03-19 12:17:23:379
0.153229,0.014365,9.782708,8.0,49.828434,24.046211,343.0,NaN,2.124,19.0,34.2,9 / 9,259027,2020-03-19 12:17:23:880
0.3304,-0.038307,9.763555,8.0,49.828434,24.046211,343.0,NaN,2.124,19.0,34.2,9 / 9,259527,2020-03-19 12:17:24:380
0.263362,-0.014365,9.792285,8.0,49.828434,24.046211,343.0,NaN,2.124,19.0,34.2,9 / 9,260026,2020-03-19 12:17:24:879
0.292093,-0.038307,9.763555,8.0,49.828434,24.046211,343.0,NaN,2.124,19.0,34.2,9 / 9,260527,2020-03-19 12:17:25:380
0.378284,0.019154,9.696517,8.0,49.828434,24.046211,343.0,NaN,2.124,19.0,34.2,9 / 9,261027,2020-03-19 12:17:25:880
0.229843,-0.033519,9.730036,8.0,49.828434,24.046211,343.0,NaN,2.124,19.0,34.2,9 / 9,261527,2020-03-19 12:17:26:380
0.148441,-0.062249,9.782708,8.0,49.828434,24.046211,343.0,NaN,2.124,19.0,34.2,9 / 9,262028,2020-03-19 12:17:26:881
0.244209,-0.004788,9.782708,8.0,49.828434,24.046211,343.0,NaN,2.124,19.0,34.2,9 / 9,262527,2020-03-19 12:17:27:380
0.258574,-0.023942,9.744401,8.0,49.828434,24.046211,343.0,NaN,2.124,19.0,34.2,9 / 9,263026,2020-03-19 12:17:27:879
0.268151,-0.047884,9.749189,8.0,49.828434,24.046211,343.0,NaN,2.124,19.0,34.2,9 / 9,263526,2020-03-19 12:17:28:379
0.282516,-0.038307,9.758766,8.0,49.828434,24.046211,343.0,NaN,2.124,19.0,34.2,9 / 9,264027,2020-03-19 12:17:28:880
0.263362,0.014365,9.739613,8.0,49.828434,24.046211,343.0,NaN,2.124,19.0,34.2,9 / 9,264527,2020-03-19 12:17:29:380
0.253785,-0.019154,9.763555,8.0,49.828434,24.046211,343.0,NaN,2.124,19.0,34.2,9 / 9,265026,2020-03-19 12:17:29:879
0.268151,-0.014365,9.758766,8.0,49.828434,24.046211,343.0,NaN,2.124,19.0,34.2,9 / 9,265527,2020-03-19 12:17:30:380
0.258574,-0.033519,9.763555,8.0,49.828434,24.046211,343.0,NaN,2.124,19.0,34.2,9 / 9,266027,2020-03-19 12:17:30:880
0.234632,0.019154,9.763555,8.0,49.828434,24.046211,343.0,NaN,2.124,19.0,34.2,9 / 9,266527,2020-03-19 12:17:31:380
0.253785,-0.009577,9.758766,8.0,49.828434,24.046211,343.0,NaN,2.124,19.0,34.2,9 / 9,267027,2020-03-19 12:17:31:880
0.258574,-0.009577,9.763555,8.0,49.828434,24.046211,343.0,NaN,2.124,19.0,34.2,0 / 0,267527,2020-03-19 12:17:32:380
0.229843,-0.019154,9.758766,8.0,49.828434,24.046211,343.0,NaN,2.124,19.0,34.2,0 / 0,268027,2020-03-19 12:17:32:880
0.258574,-0.023942,9.734824,8.0,49.828434,24.046211,343.0,NaN,2.124,19.0,34.2,0 / 1,268527,2020-03-19 12:17:33:380
0.205901,-0.110133,9.787497,8.0,49.828434,24.046211,343.0,NaN,2.124,19.0,34.2,0 / 1,269027,2020-03-19 12:17:33:880
0.296881,-0.043096,9.758766,8.0,49.828434,24.046211,343.0,NaN,2.124,19.0,34.2,0 / 1,269527,2020-03-19 12:17:34:380
0.244209,-0.02873,9.734824,8.0,49.828434,24.046211,343.0,NaN,2.124,19.0,34.2,0 / 1,270027,2020-03-19 12:17:34:880
0.272939,-0.062249,9.787497,8.0,49.828434,24.046211,343.0,NaN,2.124,19.0,34.2,6 / 6,270527,2020-03-19 12:17:35:380
0.292093,-0.038307,9.782708,8.0,49.828434,24.046211,343.0,NaN,2.124,19.0,34.2,6 / 6,271027,2020-03-19 12:17:35:880
0.3304,-0.057461,9.811439,8.0,49.828434,24.046211,343.0,NaN,2.124,19.0,34.2,6 / 6,271527,2020-03-19 12:17:36:380
0.23942,0.019154,9.768343,8.0,49.828434,24.046211,343.0,NaN,2.124,19.0,34.2,6 / 6,272027,2020-03-19 12:17:36:880
0.253785,-0.014365,9.763555,8.0,49.828434,24.046211,343.0,NaN,2.124,19.0,34.2,6 / 6,272527,2020-03-19 12:17:37:380
0.277727,-0.043096,9.816227,8.0,49.828434,24.046211,343.0,NaN,2.124,19.0,34.2,6 / 6,273027,2020-03-19 12:17:37:880
0.282516,-0.02873,9.763555,8.0,49.828434,24.046211,343.0,NaN,2.124,19.0,34.2,6 / 6,273527,2020-03-19 12:17:38:380
0.287304,-0.043096,9.744401,8.0,49.828434,24.046211,343.0,NaN,2.124,19.0,34.2,6 / 6,274027,2020-03-19 12:17:38:880
0.268151,-0.047884,9.773131,8.0,49.828434,24.046211,343.0,NaN,2.124,19.0,34.2,6 / 6,274527,2020-03-19 12:17:39:380
0.244209,0.004788,9.787497,8.0,49.828434,24.046211,343.0,NaN,2.124,19.0,34.2,6 / 6,275026,2020-03-19 12:17:39:879
0.282516,-0.009577,9.792285,8.0,49.828434,24.046211,343.0,NaN,2.124,19.0,34.2,6 / 6,275526,2020-03-19 12:17:40:379
0.225055,-0.004788,9.768343,8.0,49.828434,24.046211,343.0,NaN,2.124,19.0,34.2,6 / 6,276026,2020-03-19 12:17:40:879
0.205901,-0.038307,9.787497,8.0,49.828434,24.046211,343.0,NaN,2.124,19.0,34.2,6 / 6,276527,2020-03-19 12:17:41:380
0.263362,-0.019154,9.768343,8.0,49.828434,24.046211,343.0,NaN,2.124,19.0,34.2,6 / 6,277027,2020-03-19 12:17:41:880
0.244209,-0.023942,9.782708,8.0,49.828434,24.046211,343.0,NaN,2.124,19.0,34.2,6 / 6,277527,2020-03-19 12:17:42:380
0.277727,-0.038307,9.773131,8.0,49.828434,24.046211,343.0,NaN,2.124,19.0,34.2,6 / 6,278027,2020-03-19 12:17:42:880
0.253785,-0.014365,9.749189,8.0,49.828434,24.046211,343.0,NaN,2.124,19.0,34.2,6 / 6,278526,2020-03-19 12:17:43:379
0.229843,-0.019154,9.773131,8.0,49.828434,24.046211,343.0,NaN,2.124,19.0,34.2,6 / 6,279027,2020-03-19 12:17:43:880
0.272939,0.004788,9.753978,8.0,49.828434,24.046211,343.0,NaN,2.124,19.0,34.2,6 / 6,279527,2020-03-19 12:17:44:380
0.248997,-0.033519,9.725247,8.0,49.828434,24.046211,343.0,NaN,2.124,19.0,34.2,6 / 6,280027,2020-03-19 12:17:44:880
0.320823,-0.009577,9.768343,8.0,49.828434,24.046211,343.0,NaN,2.124,19.0,34.2,6 / 6,280527,2020-03-19 12:17:45:380
0.191536,0.014365,9.768343,8.0,49.828434,24.046211,343.0,NaN,2.124,19.0,34.2,6 / 6,281027,2020-03-19 12:17:45:880
0.248997,-0.052672,9.835381,8.0,49.828434,24.046211,343.0,NaN,2.124,19.0,34.2,6 / 6,281527,2020-03-19 12:17:46:380
0.186748,-0.004788,9.763555,8.0,49.828434,24.046211,343.0,NaN,2.124,19.0,34.2,6 / 6,282027,2020-03-19 12:17:46:880
0.368707,-0.095768,9.734824,8.0,49.828434,24.046211,343.0,NaN,2.124,19.0,34.2,6 / 6,282527,2020-03-19 12:17:47:380
0.306458,-0.134075,9.753978,8.0,49.828434,24.046211,343.0,NaN,2.124,19.0,34.2,6 / 6,283027,2020-03-19 12:17:47:880
0.268151,0.023942,9.77792,8.0,49.828434,24.046211,343.0,NaN,2.124,19.0,34.2,6 / 6,283527,2020-03-19 12:17:48:380
0.339977,-0.004788,9.77792,8.0,49.828434,24.046211,343.0,NaN,2.124,19.0,34.2,6 / 6,284026,2020-03-19 12:17:48:879
0.272939,-0.033519,9.787497,8.0,49.828434,24.046211,343.0,NaN,2.124,19.0,34.2,6 / 6,284526,2020-03-19 12:17:49:379
0.234632,-0.014365,9.801862,8.0,49.828434,24.046211,343.0,NaN,2.124,19.0,34.2,6 / 6,285026,2020-03-19 12:17:49:879
0.277727,-0.033519,9.753978,8.0,49.828434,24.046211,343.0,NaN,2.124,19.0,34.2,6 / 6,285527,2020-03-19 12:17:50:380
0.301669,0.019154,9.792285,8.0,49.828434,24.046211,343.0,NaN,2.124,19.0,34.2,6 / 6,286026,2020-03-19 12:17:50:879
0.23942,-0.009577,9.768343,8.0,49.828434,24.046211,343.0,NaN,2.124,19.0,34.2,6 / 6,286526,2020-03-19 12:17:51:379
0.23942,-0.038307,9.749189,8.0,49.828434,24.046211,343.0,NaN,2.124,19.0,34.2,6 / 6,287026,2020-03-19 12:17:51:879
0.272939,0.02873,9.758766,8.0,49.828434,24.046211,343.0,NaN,2.124,19.0,34.2,6 / 6,287527,2020-03-19 12:17:52:380
0.258574,-0.014365,9.782708,8.0,49.828434,24.046211,343.0,NaN,2.124,19.0,34.2,6 / 6,288027,2020-03-19 12:17:52:880
0.253785,0.009577,9.782708,8.0,49.828434,24.046211,343.0,NaN,2.124,19.0,34.2,6 / 6,288527,2020-03-19 12:17:53:380
0.229843,0.02873,9.782708,8.0,49.828434,24.046211,343.0,NaN,2.124,19.0,34.2,6 / 6,289027,2020-03-19 12:17:53:880
0.263362,0.023942,9.77792,8.0,49.828434,24.046211,343.0,NaN,2.124,19.0,34.2,6 / 6,289527,2020-03-19 12:17:54:380
0.263362,-0.014365,9.749189,8.0,49.828434,24.046211,343.0,NaN,2.124,19.0,34.2,6 / 6,290027,2020-03-19 12:17:54:880
0.287304,-0.009577,9.758766,8.0,49.828434,24.046211,343.0,NaN,2.124,19.0,34.2,6 / 6,290527,2020-03-19 12:17:55:380
0.196325,-0.023942,9.753978,8.0,49.828434,24.046211,343.0,NaN,2.124,19.0,34.2,6 / 6,291027,2020-03-19 12:17:55:880
0.263362,-0.023942,9.763555,8.0,49.828434,24.046211,343.0,NaN,2.124,19.0,34.2,6 / 6,291526,2020-03-19 12:17:56:379
0.244209,-0.02873,9.768343,8.0,49.828434,24.046211,343.0,NaN,2.124,19.0,34.2,6 / 6,292027,2020-03-19 12:17:56:880
0.311246,0.019154,9.749189,8.0,49.828434,24.046211,343.0,NaN,2.124,19.0,34.2,6 / 6,292527,2020-03-19 12:17:57:380
0.244209,0.014365,9.758766,8.0,49.828434,24.046211,343.0,NaN,2.124,19.0,34.2,6 / 6,293027,2020-03-19 12:17:57:880
0.205901,-0.014365,9.773131,8.0,49.828434,24.046211,343.0,NaN,2.124,19.0,34.2,6 / 6,293527,2020-03-19 12:17:58:380
0.287304,0.009577,9.782708,8.0,49.828434,24.046211,343.0,NaN,2.124,19.0,34.2,6 / 6,294027,2020-03-19 12:17:58:880
0.244209,-0.019154,9.734824,8.0,49.828434,24.046211,343.0,NaN,2.124,19.0,34.2,6 / 6,294527,2020-03-19 12:17:59:380
0.244209,-0.009577,9.753978,8.0,49.828434,24.046211,343.0,NaN,2.124,19.0,34.2,6 / 6,295027,2020-03-19 12:17:59:880
0.268151,-0.014365,9.768343,8.0,49.828434,24.046211,343.0,NaN,2.124,19.0,34.2,6 / 6,295527,2020-03-19 12:18:00:380
0.248997,-0.02873,9.730036,8.0,49.828434,24.046211,343.0,NaN,2.124,19.0,34.2,6 / 6,296027,2020-03-19 12:18:00:880
0.258574,-0.004788,9.787497,8.0,49.828434,24.046211,343.0,NaN,2.124,19.0,34.2,6 / 6,296526,2020-03-19 12:18:01:379
0.272939,-0.004788,9.77792,8.0,49.828434,24.046211,343.0,NaN,2.124,19.0,34.2,6 / 6,297027,2020-03-19 12:18:01:880
0.234632,-0.009577,9.763555,8.0,49.828434,24.046211,343.0,NaN,2.124,19.0,34.2,6 / 6,297527,2020-03-19 12:18:02:380
0.268151,-0.009577,9.753978,8.0,49.828434,24.046211,343.0,NaN,2.124,19.0,34.2,6 / 6,298027,2020-03-19 12:18:02:880
0.311246,-0.038307,9.753978,8.0,49.828434,24.046211,343.0,NaN,2.124,19.0,34.2,6 / 6,298526,2020-03-19 12:18:03:379
0.248997,0.004788,9.763555,8.0,49.828434,24.046211,343.0,NaN,2.124,19.0,34.2,6 / 6,299026,2020-03-19 12:18:03:879
0.258574,-0.009577,9.758766,8.0,49.828434,24.046211,343.0,NaN,2.124,19.0,34.2,6 / 6,299526,2020-03-19 12:18:04:379
0.263362,-0.014365,9.792285,8.0,49.828434,24.046211,343.0,NaN,2.124,19.0,34.2,6 / 6,300027,2020-03-19 12:18:04:880
0.277727,-0.02873,9.768343,8.0,49.828434,24.046211,343.0,NaN,2.124,19.0,34.2,6 / 6,300527,2020-03-19 12:18:05:380
0.263362,-0.019154,9.768343,8.0,49.828434,24.046211,343.0,NaN,2.124,19.0,34.2,6 / 6,301027,2020-03-19 12:18:05:880
0.244209,-0.014365,9.758766,8.0,49.828434,24.046211,343.0,NaN,2.124,19.0,34.2,6 / 6,301527,2020-03-19 12:18:06:380
0.248997,-0.009577,9.763555,8.0,49.828434,24.046211,343.0,NaN,2.124,19.0,34.2,6 / 6,302027,2020-03-19 12:18:06:880
0.277727,-0.014365,9.763555,8.0,49.828434,24.046211,343.0,NaN,2.124,19.0,34.2,6 / 6,302527,2020-03-19 12:18:07:380
0.215478,-0.038307,9.753978,8.0,49.828434,24.046211,343.0,NaN,2.124,19.0,34.2,6 / 6,303027,2020-03-19 12:18:07:880
0.316035,-0.052672,9.768343,8.0,49.828434,24.046211,343.0,NaN,2.124,19.0,34.2,6 / 6,303527,2020-03-19 12:18:08:380
0.306458,-0.043096,9.763555,8.0,49.828434,24.046211,343.0,NaN,2.124,19.0,34.2,6 / 6,304027,2020-03-19 12:18:08:880
0.277727,-0.057461,9.811439,8.0,49.828434,24.046211,343.0,NaN,2.124,19.0,34.2,6 / 6,304527,2020-03-19 12:18:09:380
0.248997,-0.033519,9.753978,8.0,49.828434,24.046211,343.0,NaN,2.124,19.0,34.2,6 / 6,305027,2020-03-19 12:18:09:880
0.225055,-0.052672,9.768343,8.0,49.828434,24.046211,343.0,NaN,2.124,19.0,34.2,6 / 6,305526,2020-03-19 12:18:10:379
0.23942,-0.052672,9.753978,8.0,49.828434,24.046211,343.0,NaN,2.124,19.0,34.2,6 / 6,306026,2020-03-19 12:18:10:879
0.244209,-0.043096,9.773131,8.0,49.828434,24.046211,343.0,NaN,2.124,19.0,34.2,6 / 6,306527,2020-03-19 12:18:11:380
0.220267,0.019154,9.77792,8.0,49.828434,24.046211,343.0,NaN,2.124,19.0,34.2,6 / 6,307027,2020-03-19 12:18:11:880
0.253785,0.076614,9.782708,8.0,49.828434,24.046211,343.0,NaN,2.124,19.0,34.2,6 / 6,307527,2020-03-19 12:18:12:380
0.268151,-0.019154,9.782708,8.0,49.828434,24.046211,343.0,NaN,2.124,19.0,34.2,6 / 6,308027,2020-03-19 12:18:12:880
0.263362,-0.067038,9.763555,8.0,49.828434,24.046211,343.0,NaN,2.124,19.0,34.2,6 / 6,308527,2020-03-19 12:18:13:380
0.258574,-0.033519,9.782708,8.0,49.828434,24.046211,343.0,NaN,2.124,19.0,34.2,6 / 6,309026,2020-03-19 12:18:13:879
0.272939,-0.014365,9.773131,8.0,49.828434,24.046211,343.0,NaN,2.124,19.0,34.2,6 / 6,309527,2020-03-19 12:18:14:380
0.296881,0.019154,9.763555,8.0,49.828434,24.046211,343.0,NaN,2.124,19.0,34.2,6 / 6,310027,2020-03-19 12:18:14:880
0.320823,-0.02873,9.730036,8.0,49.828434,24.046211,343.0,NaN,2.124,19.0,34.2,6 / 6,310527,2020-03-19 12:18:15:380
0.23942,-0.062249,9.797073,8.0,49.828434,24.046211,343.0,NaN,2.124,19.0,34.2,6 / 6,311026,2020-03-19 12:18:15:879
0.306458,-0.038307,9.768343,8.0,49.828434,24.046211,343.0,NaN,2.124,19.0,34.2,6 / 6,311527,2020-03-19 12:18:16:380
0.325611,-0.033519,9.801862,8.0,49.828434,24.046211,343.0,NaN,2.124,19.0,34.2,6 / 6,312027,2020-03-19 12:18:16:880
0.282516,-0.047884,9.77792,8.0,49.828434,24.046211,343.0,NaN,2.124,19.0,34.2,6 / 6,312527,2020-03-19 12:18:17:380
0.282516,-0.033519,9.734824,8.0,49.828434,24.046211,343.0,NaN,2.124,19.0,34.2,6 / 6,313027,2020-03-19 12:18:17:880
0.253785,-0.02873,9.77792,8.0,49.828434,24.046211,343.0,NaN,2.124,19.0,34.2,6 / 6,313527,2020-03-19 12:18:18:380
0.248997,-0.004788,9.763555,8.0,49.828434,24.046211,343.0,NaN,2.124,19.0,34.2,6 / 6,314027,2020-03-19 12:18:18:880
0.263362,-0.033519,9.782708,8.0,49.828434,24.046211,343.0,NaN,2.124,19.0,34.2,6 / 6,314526,2020-03-19 12:18:19:379
0.248997,-0.023942,9.749189,8.0,49.828434,24.046211,343.0,NaN,2.124,19.0,34.2,6 / 6,315027,2020-03-19 12:18:19:880
0.268151,-0.023942,9.753978,8.0,49.828434,24.046211,343.0,NaN,2.124,19.0,34.2,6 / 6,315526,2020-03-19 12:18:20:379
0.253785,-0.047884,9.758766,8.0,49.828434,24.046211,343.0,NaN,2.124,19.0,34.2,6 / 6,316027,2020-03-19 12:18:20:880
0.301669,-0.004788,9.792285,8.0,49.828434,24.046211,343.0,NaN,2.124,19.0,34.2,6 / 6,316527,2020-03-19 12:18:21:380
0.268151,0.009577,9.749189,8.0,49.828434,24.046211,343.0,NaN,2.124,19.0,34.2,6 / 6,317026,2020-03-19 12:18:21:879
0.263362,-0.033519,9.758766,8.0,49.828434,24.046211,343.0,NaN,2.124,19.0,34.2,6 / 6,317526,2020-03-19 12:18:22:379
0.258574,-0.019154,9.749189,8.0,49.828434,24.046211,343.0,NaN,2.124,19.0,34.2,6 / 6,318027,2020-03-19 12:18:22:880
0.253785,-0.014365,9.749189,8.0,49.828434,24.046211,343.0,NaN,2.124,19.0,34.2,6 / 6,318527,2020-03-19 12:18:23:380
0.277727,-0.02873,9.758766,8.0,49.828434,24.046211,343.0,NaN,2.124,19.0,34.2,0 / 0,319027,2020-03-19 12:18:23:880
0.268151,-0.033519,9.739613,8.0,49.828434,24.046211,343.0,NaN,2.124,19.0,34.2,0 / 0,319527,2020-03-19 12:18:24:380
0.268151,-0.047884,9.758766,8.0,49.828434,24.046211,343.0,NaN,2.124,19.0,34.2,0 / 1,320027,2020-03-19 12:18:24:880
0.268151,-0.047884,9.768343,8.0,49.828434,24.046211,343.0,NaN,2.124,19.0,34.2,0 / 1,320528,2020-03-19 12:18:25:381
0.258574,-0.02873,9.753978,8.0,49.828434,24.046211,343.0,NaN,2.124,19.0,34.2,0 / 1,321027,2020-03-19 12:18:25:880
0.253785,-0.043096,9.792285,8.0,49.828434,24.046211,343.0,NaN,2.124,19.0,34.2,5 / 5,321527,2020-03-19 12:18:26:380
0.248997,-0.004788,9.782708,8.0,49.828434,24.046211,343.0,NaN,2.124,19.0,34.2,5 / 5,322026,2020-03-19 12:18:26:879
0.268151,-0.033519,9.753978,8.0,49.828434,24.046211,343.0,NaN,2.124,19.0,34.2,5 / 5,322526,2020-03-19 12:18:27:379
0.244209,-0.019154,9.763555,8.0,49.828434,24.046211,343.0,NaN,2.124,19.0,34.2,5 / 5,323027,2020-03-19 12:18:27:880
0.287304,-0.02873,9.753978,8.0,49.828434,24.046211,343.0,NaN,2.124,19.0,34.2,5 / 5,323527,2020-03-19 12:18:28:380
0.258574,-0.02873,9.77792,8.0,49.828434,24.046211,343.0,NaN,2.124,19.0,34.2,5 / 5,324027,2020-03-19 12:18:28:880
0.268151,0.009577,9.773131,8.0,49.828434,24.046211,343.0,NaN,2.124,19.0,34.2,5 / 5,324527,2020-03-19 12:18:29:380
0.248997,0.014365,9.773131,8.0,49.828434,24.046211,343.0,NaN,2.124,19.0,34.2,5 / 5,325027,2020-03-19 12:18:29:880
0.272939,-0.014365,9.77792,8.0,49.828434,24.046211,343.0,NaN,2.124,19.0,34.2,5 / 5,325526,2020-03-19 12:18:30:379
0.248997,-0.023942,9.768343,8.0,49.828434,24.046211,343.0,NaN,2.124,19.0,34.2,5 / 5,326027,2020-03-19 12:18:30:880
0.253785,-0.023942,9.787497,8.0,49.828434,24.046211,343.0,NaN,2.124,19.0,34.2,5 / 5,326527,2020-03-19 12:18:31:380
0.253785,-0.009577,9.763555,8.0,49.828434,24.046211,343.0,NaN,2.124,19.0,34.2,5 / 5,327027,2020-03-19 12:18:31:880
0.268151,-0.009577,9.758766,8.0,49.828434,24.046211,343.0,NaN,2.124,19.0,34.2,5 / 5,327527,2020-03-19 12:18:32:380
0.296881,-0.052672,9.744401,8.0,49.828434,24.046211,343.0,NaN,2.124,19.0,34.2,5 / 5,328027,2020-03-19 12:18:32:880
0.277727,0.014365,9.77792,8.0,49.828434,24.046211,343.0,NaN,2.124,19.0,34.2,5 / 5,328526,2020-03-19 12:18:33:379
0.292093,-0.071826,9.80665,8.0,49.828434,24.046211,343.0,NaN,2.124,19.0,34.2,5 / 5,329026,2020-03-19 12:18:33:879
0.248997,-0.019154,9.753978,8.0,49.828434,24.046211,343.0,NaN,2.124,19.0,34.2,5 / 5,329527,2020-03-19 12:18:34:380
0.258574,-0.009577,9.768343,8.0,49.828434,24.046211,343.0,NaN,2.124,19.0,34.2,5 / 5,330027,2020-03-19 12:18:34:880
0.268151,-0.038307,9.768343,8.0,49.828434,24.046211,343.0,NaN,2.124,19.0,34.2,5 / 5,330527,2020-03-19 12:18:35:380
0.258574,-0.004788,9.797073,8.0,49.828434,24.046211,343.0,NaN,2.124,19.0,34.2,5 / 5,331027,2020-03-19 12:18:35:880
0.248997,-0.004788,9.763555,8.0,49.828434,24.046211,343.0,NaN,2.124,19.0,34.2,5 / 5,331527,2020-03-19 12:18:36:380
0.263362,-0.004788,9.763555,8.0,49.828434,24.046211,343.0,NaN,2.124,19.0,34.2,5 / 5,332026,2020-03-19 12:18:36:879
0.234632,0.004788,9.773131,8.0,49.828434,24.046211,343.0,NaN,2.124,19.0,34.2,5 / 5,332526,2020-03-19 12:18:37:379
0.268151,-0.004788,9.749189,8.0,49.828434,24.046211,343.0,NaN,2.124,19.0,34.2,5 / 5,333026,2020-03-19 12:18:37:879
0.248997,-0.071826,9.744401,8.0,49.828434,24.046211,343.0,NaN,2.124,19.0,34.2,5 / 5,333527,2020-03-19 12:18:38:380
0.258574,-0.014365,9.787497,8.0,49.828434,24.046211,343.0,NaN,2.124,19.0,34.2,5 / 5,334027,2020-03-19 12:18:38:880
0.253785,0.014365,9.792285,8.0,49.828434,24.046211,343.0,NaN,2.124,19.0,34.2,5 / 5,334527,2020-03-19 12:18:39:380
0.263362,-0.014365,9.782708,8.0,49.828434,24.046211,343.0,NaN,2.124,19.0,34.2,5 / 5,335026,2020-03-19 12:18:39:879
0.253785,-0.057461,9.749189,8.0,49.828434,24.046211,343.0,NaN,2.124,19.0,34.2,5 / 5,335527,2020-03-19 12:18:40:380
0.277727,-0.023942,9.787497,8.0,49.828434,24.046211,343.0,NaN,2.124,19.0,34.2,5 / 5,336027,2020-03-19 12:18:40:880
0.268151,-0.038307,9.763555,8.0,49.828434,24.046211,343.0,NaN,2.124,19.0,34.2,5 / 5,336527,2020-03-19 12:18:41:380
0.253785,-0.043096,9.763555,8.0,49.828434,24.046211,343.0,NaN,2.124,19.0,34.2,5 / 5,337028,2020-03-19 12:18:41:881
0.253785,-0.02873,9.768343,8.0,49.828434,24.046211,343.0,NaN,2.124,19.0,34.2,5 / 5,337527,2020-03-19 12:18:42:380
0.248997,-0.004788,9.763555,8.0,49.828434,24.046211,343.0,NaN,2.124,19.0,34.2,5 / 5,338027,2020-03-19 12:18:42:880
0.23942,-0.019154,9.787497,8.0,49.828434,24.046211,343.0,NaN,2.124,19.0,34.2,5 / 5,338527,2020-03-19 12:18:43:380
0.244209,-0.009577,9.768343,8.0,49.828434,24.046211,343.0,NaN,2.124,19.0,34.2,5 / 5,339027,2020-03-19 12:18:43:880
0.272939,-0.019154,9.768343,8.0,49.828434,24.046211,343.0,NaN,2.124,19.0,34.2,5 / 5,339526,2020-03-19 12:18:44:379
0.248997,-0.019154,9.753978,8.0,49.828434,24.046211,343.0,NaN,2.124,19.0,34.2,5 / 5,340026,2020-03-19 12:18:44:879
0.258574,-0.019154,9.768343,8.0,49.828434,24.046211,343.0,NaN,2.124,19.0,34.2,5 / 5,340526,2020-03-19 12:18:45:379
0.248997,-0.019154,9.782708,8.0,49.828434,24.046211,343.0,NaN,2.124,19.0,34.2,5 / 5,341027,2020-03-19 12:18:45:880
0.287304,-0.023942,9.768343,8.0,49.828434,24.046211,343.0,NaN,2.124,19.0,34.2,5 / 5,341526,2020-03-19 12:18:46:379
0.277727,0.014365,9.782708,8.0,49.828434,24.046211,343.0,NaN,2.124,19.0,34.2,5 / 5,342027,2020-03-19 12:18:46:880
0.258574,-0.043096,9.763555,8.0,49.828434,24.046211,343.0,NaN,2.124,19.0,34.2,5 / 5,342527,2020-03-19 12:18:47:380
0.248997,-0.02873,9.768343,8.0,49.828434,24.046211,343.0,NaN,2.124,19.0,34.2,5 / 5,343027,2020-03-19 12:18:47:880
0.244209,-0.038307,9.77792,8.0,49.828434,24.046211,343.0,NaN,2.124,19.0,34.2,5 / 5,343527,2020-03-19 12:18:48:380
0.277727,-0.019154,9.749189,8.0,49.828434,24.046211,343.0,NaN,2.124,19.0,34.2,5 / 5,344027,2020-03-19 12:18:48:880
0.272939,-0.004788,9.753978,8.0,49.828434,24.046211,343.0,NaN,2.124,19.0,34.2,5 / 5,344526,2020-03-19 12:18:49:379
0.272939,-0.009577,9.749189,8.0,49.828434,24.046211,343.0,NaN,2.124,19.0,34.2,5 / 5,345027,2020-03-19 12:18:49:880
0.234632,-0.019154,9.763555,8.0,49.828434,24.046211,343.0,NaN,2.124,19.0,34.2,5 / 5,345527,2020-03-19 12:18:50:380
0.244209,-0.009577,9.768343,8.0,49.828434,24.046211,343.0,NaN,2.124,19.0,34.2,5 / 5,346027,2020-03-19 12:18:50:880
0.268151,-0.019154,9.763555,8.0,49.828434,24.046211,343.0,NaN,2.124,19.0,34.2,5 / 5,346527,2020-03-19 12:18:51:380
0.253785,-0.004788,9.77792,8.0,49.828434,24.046211,343.0,NaN,2.124,19.0,34.2,5 / 5,347027,2020-03-19 12:18:51:880
0.282516,-0.014365,9.758766,8.0,49.828434,24.046211,343.0,NaN,2.124,19.0,34.2,5 / 5,347527,2020-03-19 12:18:52:380
0.244209,-0.009577,9.77792,8.0,49.828434,24.046211,343.0,NaN,2.124,19.0,34.2,5 / 5,348027,2020-03-19 12:18:52:880
0.258574,-0.019154,9.715671,8.0,49.828434,24.046211,343.0,NaN,2.124,19.0,34.2,5 / 5,348526,2020-03-19 12:18:53:379
0.225055,0.052672,9.691729,8.0,49.828434,24.046211,343.0,NaN,2.124,19.0,34.2,5 / 5,349026,2020-03-19 12:18:53:879
0.215478,-0.100556,9.773131,8.0,49.828434,24.046211,343.0,NaN,2.124,19.0,34.2,5 / 5,349526,2020-03-19 12:18:54:379
0.253785,-0.052672,9.782708,8.0,49.828434,24.046211,343.0,NaN,2.124,19.0,34.2,5 / 5,350027,2020-03-19 12:18:54:880
0.253785,-0.019154,9.773131,8.0,49.828434,24.046211,343.0,NaN,2.124,19.0,34.2,5 / 5,350527,2020-03-19 12:18:55:380
0.229843,0.009577,9.768343,8.0,49.828434,24.046211,343.0,NaN,2.124,19.0,34.2,5 / 5,351026,2020-03-19 12:18:55:879
0.263362,-0.014365,9.77792,8.0,49.828434,24.046211,343.0,NaN,2.124,19.0,34.2,5 / 5,351526,2020-03-19 12:18:56:379
0.296881,-0.153229,9.773131,8.0,49.828434,24.046211,343.0,NaN,2.124,19.0,34.2,5 / 5,352027,2020-03-19 12:18:56:880
0.23942,-0.014365,9.787497,8.0,49.828434,24.046211,343.0,NaN,2.124,19.0,34.2,5 / 5,352527,2020-03-19 12:18:57:380
0.344765,0.004788,9.782708,8.0,49.828434,24.046211,343.0,NaN,2.124,19.0,34.2,5 / 5,353027,2020-03-19 12:18:57:880
0.287304,0.114922,9.653421,8.0,49.828434,24.046211,343.0,NaN,2.124,19.0,34.2,5 / 5,353527,2020-03-19 12:18:58:380
0.229843,0.023942,9.792285,8.0,49.828434,24.046211,343.0,NaN,2.124,19.0,34.2,5 / 5,354027,2020-03-19 12:18:58:880
0.277727,-0.014365,9.768343,8.0,49.828434,24.046211,343.0,NaN,2.124,19.0,34.2,5 / 5,354527,2020-03-19 12:18:59:380
0.220267,0.004788,9.773131,8.0,49.828434,24.046211,343.0,NaN,2.124,19.0,34.2,5 / 5,355027,2020-03-19 12:18:59:880
0.282516,-0.02873,9.763555,8.0,49.828434,24.046211,343.0,NaN,2.124,19.0,34.2,5 / 5,355526,2020-03-19 12:19:00:379
0.253785,-0.02873,9.787497,8.0,49.828434,24.046211,343.0,NaN,2.124,19.0,34.2,5 / 5,356026,2020-03-19 12:19:00:879
0.272939,-0.019154,9.744401,8.0,49.828434,24.046211,343.0,NaN,2.124,19.0,34.2,5 / 5,356526,2020-03-19 12:19:01:379
0.287304,-0.038307,9.782708,8.0,49.828434,24.046211,343.0,NaN,2.124,19.0,34.2,5 / 5,357027,2020-03-19 12:19:01:880
0.282516,-0.023942,9.758766,8.0,49.828434,24.046211,343.0,NaN,2.124,19.0,34.2,5 / 5,357526,2020-03-19 12:19:02:379
0.215478,-0.014365,9.753978,8.0,49.828434,24.046211,343.0,NaN,2.124,19.0,34.2,5 / 5,358026,2020-03-19 12:19:02:879
0.277727,-0.019154,9.801862,8.0,49.828434,24.046211,343.0,NaN,2.124,19.0,34.2,5 / 5,358526,2020-03-19 12:19:03:379
0.234632,-0.014365,9.758766,8.0,49.828434,24.046211,343.0,NaN,2.124,19.0,34.2,5 / 5,359026,2020-03-19 12:19:03:879
0.263362,-0.02873,9.763555,8.0,49.828434,24.046211,343.0,NaN,2.124,19.0,34.2,5 / 5,359526,2020-03-19 12:19:04:379
0.263362,-0.023942,9.763555,8.0,49.828434,24.046211,343.0,NaN,2.124,19.0,34.2,5 / 5,360026,2020-03-19 12:19:04:879
0.277727,-0.023942,9.763555,8.0,49.828434,24.046211,343.0,NaN,2.124,19.0,34.2,5 / 5,360527,2020-03-19 12:19:05:380
0.258574,0.019154,9.749189,8.0,49.828434,24.046211,343.0,NaN,2.124,19.0,34.2,5 / 5,361026,2020-03-19 12:19:05:879
0.268151,-0.02873,9.787497,8.0,49.828434,24.046211,343.0,NaN,2.124,19.0,34.2,5 / 5,361526,2020-03-19 12:19:06:379
0.263362,0.014365,9.763555,8.0,49.828434,24.046211,343.0,NaN,2.124,19.0,34.2,5 / 5,362026,2020-03-19 12:19:06:879
0.234632,-0.019154,9.749189,8.0,49.828434,24.046211,343.0,NaN,2.124,19.0,34.2,5 / 5,362526,2020-03-19 12:19:07:379
0.248997,-0.023942,9.739613,8.0,49.828434,24.046211,343.0,NaN,2.124,19.0,34.2,5 / 5,363027,2020-03-19 12:19:07:880
0.258574,-0.043096,9.773131,8.0,49.828434,24.046211,343.0,NaN,2.124,19.0,34.2,5 / 5,363526,2020-03-19 12:19:08:379
0.268151,0.004788,9.763555,8.0,49.828434,24.046211,343.0,NaN,2.124,19.0,34.2,5 / 5,364026,2020-03-19 12:19:08:879
0.311246,0.038307,9.730036,8.0,49.828434,24.046211,343.0,NaN,2.124,19.0,34.2,5 / 5,364526,2020-03-19 12:19:09:379
0.201113,-0.057461,9.763555,8.0,49.828434,24.046211,343.0,NaN,2.124,19.0,34.2,5 / 5,365027,2020-03-19 12:19:09:880
0.292093,0.009577,9.773131,8.0,49.828434,24.046211,343.0,NaN,2.124,19.0,34.2,5 / 5,365527,2020-03-19 12:19:10:380
0.282516,-0.014365,9.782708,8.0,49.828434,24.046211,343.0,NaN,2.124,19.0,34.2,5 / 5,366026,2020-03-19 12:19:10:879
0.306458,-0.043096,9.749189,8.0,49.828434,24.046211,343.0,NaN,2.124,19.0,34.2,5 / 5,366527,2020-03-19 12:19:11:380
-0.019154,0.057461,9.725247,8.0,49.828434,24.046211,343.0,NaN,2.124,19.0,34.2,5 / 5,367026,2020-03-19 12:19:11:879
0.272939,-0.004788,9.773131,8.0,49.828434,24.046211,343.0,NaN,2.124,19.0,34.2,5 / 5,367526,2020-03-19 12:19:12:379
0.229843,0.019154,9.773131,8.0,49.828434,24.046211,343.0,NaN,2.124,19.0,34.2,5 / 5,368027,2020-03-19 12:19:12:880
0.23942,0.009577,9.768343,8.0,49.828434,24.046211,343.0,NaN,2.124,19.0,34.2,5 / 5,368527,2020-03-19 12:19:13:380
0.287304,-0.038307,9.749189,8.0,49.828434,24.046211,343.0,NaN,2.124,19.0,34.2,5 / 5,369027,2020-03-19 12:19:13:880
0.263362,0.014365,9.77792,8.0,49.828434,24.046211,343.0,NaN,2.124,19.0,34.2,5 / 5,369527,2020-03-19 12:19:14:380
0.234632,-0.023942,9.773131,8.0,49.828434,24.046211,343.0,NaN,2.124,19.0,34.2,5 / 5,370027,2020-03-19 12:19:14:880
0.215478,0.354342,8.585608,8.0,49.828434,24.046211,343.0,NaN,2.124,19.0,34.2,5 / 5,370527,2020-03-19 12:19:15:380
0.3304,0.052672,9.792285,8.0,49.828434,24.046211,343.0,NaN,2.124,19.0,34.2,5 / 5,371027,2020-03-19 12:19:15:880
0.306458,0.004788,9.749189,8.0,49.828434,24.046211,343.0,NaN,2.124,19.0,34.2,5 / 5,371527,2020-03-19 12:19:16:380
0.253785,-0.004788,9.787497,8.0,49.828434,24.046211,343.0,NaN,2.124,19.0,34.2,5 / 5,372026,2020-03-19 12:19:16:879
0.225055,-0.014365,9.787497,8.0,49.828434,24.046211,343.0,NaN,2.124,19.0,34.2,5 / 5,372527,2020-03-19 12:19:17:380
0.253785,-0.014365,9.758766,8.0,49.828434,24.046211,343.0,NaN,2.124,19.0,34.2,5 / 5,373027,2020-03-19 12:19:17:880
0.229843,0.004788,9.816227,8.0,49.828434,24.046211,343.0,NaN,2.124,19.0,34.2,5 / 5,373527,2020-03-19 12:19:18:380
0.244209,0.014365,9.749189,8.0,49.828434,24.046211,343.0,NaN,2.124,19.0,34.2,5 / 5,374027,2020-03-19 12:19:18:880
0.277727,-0.009577,9.768343,8.0,49.828434,24.046211,343.0,NaN,2.124,19.0,34.2,5 / 5,374527,2020-03-19 12:19:19:380
0.263362,-0.014365,9.744401,8.0,49.828434,24.046211,343.0,NaN,2.124,19.0,34.2,5 / 5,375027,2020-03-19 12:19:19:880
0.258574,-0.004788,9.773131,8.0,49.828434,24.046211,343.0,NaN,2.124,19.0,34.2,5 / 5,375526,2020-03-19 12:19:20:379
0.263362,0.009577,9.792285,8.0,49.828434,24.046211,343.0,NaN,2.124,19.0,34.2,5 / 5,376027,2020-03-19 12:19:20:880
0.287304,-0.009577,9.763555,8.0,49.828434,24.046211,343.0,NaN,2.124,19.0,34.2,5 / 5,376527,2020-03-19 12:19:21:380
0.21069,0.038307,9.715671,8.0,49.828434,24.046211,343.0,NaN,2.124,19.0,34.2,5 / 5,377027,2020-03-19 12:19:21:880
0.296881,-0.019154,9.763555,8.0,49.828434,24.046211,343.0,NaN,2.124,19.0,34.2,5 / 5,377526,2020-03-19 12:19:22:379
0.229843,-0.02873,9.763555,8.0,49.828434,24.046211,343.0,NaN,2.124,19.0,34.2,5 / 5,378027,2020-03-19 12:19:22:880
0.263362,0.014365,9.797073,8.0,49.828434,24.046211,343.0,NaN,2.124,19.0,34.2,5 / 5,378527,2020-03-19 12:19:23:380
0.258574,-0.023942,9.749189,8.0,49.828434,24.046211,343.0,NaN,2.124,19.0,34.2,5 / 5,379027,2020-03-19 12:19:23:880
0.23942,-0.009577,9.749189,8.0,49.828434,24.046211,343.0,NaN,2.124,19.0,34.2,5 / 5,379527,2020-03-19 12:19:24:380
0.268151,-0.014365,9.77792,8.0,49.828434,24.046211,343.0,NaN,2.124,19.0,34.2,5 / 5,380026,2020-03-19 12:19:24:879
0.258574,-0.004788,9.744401,8.0,49.828434,24.046211,343.0,NaN,2.124,19.0,34.2,5 / 5,380526,2020-03-19 12:19:25:379
0.268151,-0.033519,9.787497,8.0,49.828434,24.046211,343.0,NaN,2.124,19.0,34.2,5 / 5,381026,2020-03-19 12:19:25:879
0.287304,-0.033519,9.77792,8.0,49.828434,24.046211,343.0,NaN,2.124,19.0,34.2,5 / 5,381526,2020-03-19 12:19:26:379
0.21069,-0.009577,9.753978,8.0,49.828434,24.046211,343.0,NaN,2.124,19.0,34.2,5 / 5,382026,2020-03-19 12:19:26:879
0.234632,-0.038307,9.744401,8.0,49.828434,24.046211,343.0,NaN,2.124,19.0,34.2,5 / 5,382527,2020-03-19 12:19:27:380
0.306458,-0.004788,9.782708,8.0,49.828434,24.046211,343.0,NaN,2.124,19.0,34.2,5 / 5,383027,2020-03-19 12:19:27:880
0.268151,0.004788,9.763555,8.0,49.828434,24.046211,343.0,NaN,2.124,19.0,34.2,5 / 5,383527,2020-03-19 12:19:28:380
0.263362,-0.004788,9.768343,8.0,49.828434,24.046211,343.0,NaN,2.124,19.0,34.2,5 / 5,384027,2020-03-19 12:19:28:880
0.23942,-0.02873,9.782708,8.0,49.828434,24.046211,343.0,NaN,2.124,19.0,34.2,5 / 5,384527,2020-03-19 12:19:29:380
0.277727,-0.023942,9.77792,8.0,49.828434,24.046211,343.0,NaN,2.124,19.0,34.2,5 / 5,385027,2020-03-19 12:19:29:880
0.301669,0.009577,9.744401,8.0,49.828434,24.046211,343.0,NaN,2.124,19.0,34.2,5 / 5,385527,2020-03-19 12:19:30:380
0.282516,-0.019154,9.782708,8.0,49.828434,24.046211,343.0,NaN,2.124,19.0,34.2,5 / 5,386027,2020-03-19 12:19:30:880
0.272939,0.009577,9.768343,8.0,49.828434,24.046211,343.0,NaN,2.124,19.0,34.2,5 / 5,386527,2020-03-19 12:19:31:380
0.248997,-0.014365,9.77792,8.0,49.828434,24.046211,343.0,NaN,2.124,19.0,34.2,5 / 5,387027,2020-03-19 12:19:31:880
0.23942,-0.014365,9.787497,8.0,49.828434,24.046211,343.0,NaN,2.124,19.0,34.2,5 / 5,387527,2020-03-19 12:19:32:380
0.253785,-0.047884,9.749189,8.0,49.828434,24.046211,343.0,NaN,2.124,19.0,34.2,5 / 5,388027,2020-03-19 12:19:32:880
0.229843,0.014365,9.768343,8.0,49.828434,24.046211,343.0,NaN,2.124,19.0,34.2,5 / 5,388527,2020-03-19 12:19:33:380
0.248997,0.009577,9.801862,8.0,49.828434,24.046211,343.0,NaN,2.124,19.0,34.2,5 / 5,389026,2020-03-19 12:19:33:879
0.268151,-0.004788,9.782708,8.0,49.828434,24.046211,343.0,NaN,2.124,19.0,34.2,5 / 5,389527,2020-03-19 12:19:34:380
0.263362,-0.009577,9.768343,8.0,49.828434,24.046211,343.0,NaN,2.124,19.0,34.2,5 / 5,390027,2020-03-19 12:19:34:880
0.296881,-0.009577,9.739613,8.0,49.828434,24.046211,343.0,NaN,2.124,19.0,34.2,5 / 5,390526,2020-03-19 12:19:35:379
0.272939,-0.004788,9.773131,8.0,49.828434,24.046211,343.0,NaN,2.124,19.0,34.2,5 / 5,391026,2020-03-19 12:19:35:879
0.272939,-0.019154,9.758766,8.0,49.828434,24.046211,343.0,NaN,2.124,19.0,34.2,5 / 5,391526,2020-03-19 12:19:36:379
0.225055,0.004788,9.782708,8.0,49.828434,24.046211,343.0,NaN,2.124,19.0,34.2,5 / 5,392026,2020-03-19 12:19:36:879
0.215478,0.004788,9.763555,8.0,49.828434,24.046211,343.0,NaN,2.124,19.0,34.2,5 / 5,392527,2020-03-19 12:19:37:380
0.244209,-0.02873,9.773131,8.0,49.828434,24.046211,343.0,NaN,2.124,19.0,34.2,5 / 5,393027,2020-03-19 12:19:37:880
0.258574,-0.014365,9.77792,8.0,49.828434,24.046211,343.0,NaN,2.124,19.0,34.2,5 / 5,393527,2020-03-19 12:19:38:380
0.263362,-0.019154,9.753978,8.0,49.828434,24.046211,343.0,NaN,2.124,19.0,34.2,5 / 5,394026,2020-03-19 12:19:38:879
0.205901,-0.014365,9.753978,8.0,49.828434,24.046211,343.0,NaN,2.124,19.0,34.2,5 / 5,394527,2020-03-19 12:19:39:380
0.196325,0.038307,9.744401,8.0,49.828434,24.046211,343.0,NaN,2.124,19.0,34.2,5 / 5,395027,2020-03-19 12:19:39:880
0.296881,-0.019154,9.773131,8.0,49.828434,24.046211,343.0,NaN,2.124,19.0,34.2,5 / 5,395527,2020-03-19 12:19:40:380
0.320823,-0.019154,9.763555,8.0,49.828434,24.046211,343.0,NaN,2.124,19.0,34.2,5 / 5,396027,2020-03-19 12:19:40:880
0.258574,-0.038307,9.77792,8.0,49.828434,24.046211,343.0,NaN,2.124,19.0,34.2,5 / 5,396527,2020-03-19 12:19:41:380
0.244209,-0.038307,9.730036,8.0,49.828434,24.046211,343.0,NaN,2.124,19.0,34.2,0 / 0,397027,2020-03-19 12:19:41:880
0.292093,-0.014365,9.753978,8.0,49.828434,24.046211,343.0,NaN,2.124,19.0,34.2,0 / 0,397527,2020-03-19 12:19:42:380
0.229843,-0.014365,9.782708,8.0,49.828434,24.046211,343.0,NaN,2.124,19.0,34.2,0 / 0,398027,2020-03-19 12:19:42:880
0.272939,-0.014365,9.758766,8.0,49.828434,24.046211,343.0,NaN,2.124,19.0,34.2,0 / 0,398527,2020-03-19 12:19:43:380
0.244209,0.02873,9.744401,8.0,49.828434,24.046211,343.0,NaN,2.124,19.0,34.2,0 / 1,399027,2020-03-19 12:19:43:880
0.277727,-0.009577,9.744401,8.0,49.828434,24.046211,343.0,NaN,2.124,19.0,34.2,0 / 1,399526,2020-03-19 12:19:44:379
0.263362,-0.009577,9.844957,8.0,49.828434,24.046211,343.0,NaN,2.124,19.0,34.2,0 / 1,400027,2020-03-19 12:19:44:880
0.201113,-0.014365,9.787497,8.0,49.828434,24.046211,343.0,NaN,2.124,19.0,34.2,0 / 1,400527,2020-03-19 12:19:45:380
0.229843,-0.014365,9.758766,8.0,49.828434,24.046211,343.0,NaN,2.124,19.0,34.2,0 / 2,401027,2020-03-19 12:19:45:880
0.23942,-0.009577,9.758766,8.0,49.828434,24.046211,343.0,NaN,2.124,19.0,34.2,0 / 2,401527,2020-03-19 12:19:46:380
0.287304,0.009577,9.816227,8.0,49.828434,24.046211,343.0,NaN,2.124,19.0,34.2,0 / 2,402027,2020-03-19 12:19:46:880
0.201113,0.033519,9.739613,8.0,49.828434,24.046211,343.0,NaN,2.124,19.0,34.2,0 / 2,402527,2020-03-19 12:19:47:380
0.253785,0.043096,9.749189,8.0,49.828434,24.046211,343.0,NaN,2.124,19.0,34.2,6 / 6,403026,2020-03-19 12:19:47:879
0.253785,0.023942,9.782708,8.0,49.828434,24.046211,343.0,NaN,2.124,19.0,34.2,6 / 6,403527,2020-03-19 12:19:48:380
0.234632,-0.019154,9.739613,8.0,49.828434,24.046211,343.0,NaN,2.124,19.0,34.2,6 / 6,404027,2020-03-19 12:19:48:880
0.301669,-0.033519,9.801862,8.0,49.828434,24.046211,343.0,NaN,2.124,19.0,34.2,6 / 6,404527,2020-03-19 12:19:49:380
0.244209,0.047884,9.801862,8.0,49.828434,24.046211,343.0,NaN,2.124,19.0,34.2,6 / 6,405027,2020-03-19 12:19:49:880
0.229843,-0.004788,9.744401,8.0,49.828434,24.046211,343.0,NaN,2.124,19.0,34.2,6 / 6,405526,2020-03-19 12:19:50:379
0.263362,0.014365,9.773131,8.0,49.828434,24.046211,343.0,NaN,2.124,19.0,34.2,6 / 6,406026,2020-03-19 12:19:50:879
0.268151,0.004788,9.749189,8.0,49.828434,24.046211,343.0,NaN,2.124,19.0,34.2,6 / 6,406527,2020-03-19 12:19:51:380
0.229843,0.047884,9.773131,8.0,49.828434,24.046211,343.0,NaN,2.124,19.0,34.2,6 / 6,407027,2020-03-19 12:19:51:880
0.205901,0.023942,9.758766,8.0,49.828434,24.046211,343.0,NaN,2.124,19.0,34.2,6 / 6,407527,2020-03-19 12:19:52:380
0.292093,-0.02873,9.753978,8.0,49.828434,24.046211,343.0,NaN,2.124,19.0,34.2,6 / 6,408027,2020-03-19 12:19:52:880
0.292093,-0.019154,9.787497,8.0,49.828434,24.046211,343.0,NaN,2.124,19.0,34.2,6 / 6,408526,2020-03-19 12:19:53:379
0.177171,-0.038307,9.739613,8.0,49.828434,24.046211,343.0,NaN,2.124,19.0,34.2,6 / 6,409027,2020-03-19 12:19:53:880
0.215478,-0.033519,9.787497,8.0,49.828434,24.046211,343.0,NaN,2.124,19.0,34.2,6 / 6,409527,2020-03-19 12:19:54:380
0.258574,0.004788,9.773131,8.0,49.828434,24.046211,343.0,NaN,2.124,19.0,34.2,6 / 6,410027,2020-03-19 12:19:54:880
0.292093,-0.047884,9.797073,8.0,49.828434,24.046211,343.0,NaN,2.124,19.0,34.2,6 / 6,410527,2020-03-19 12:19:55:380
0.272939,-0.114922,9.768343,8.0,49.828434,24.046211,343.0,NaN,2.124,19.0,34.2,6 / 6,411027,2020-03-19 12:19:55:880
0.263362,-0.076614,9.768343,8.0,49.828434,24.046211,343.0,NaN,2.124,19.0,34.2,6 / 6,411527,2020-03-19 12:19:56:380
0.21069,-0.02873,9.773131,8.0,49.828434,24.046211,343.0,NaN,2.124,19.0,34.2,6 / 6,412027,2020-03-19 12:19:56:880
0.292093,-0.023942,9.77792,8.0,49.828434,24.046211,343.0,NaN,2.124,19.0,34.2,6 / 6,412526,2020-03-19 12:19:57:379
0.263362,-0.004788,9.763555,8.0,49.828434,24.046211,343.0,NaN,2.124,19.0,34.2,6 / 6,413026,2020-03-19 12:19:57:879
0.354342,-0.033519,9.768343,8.0,49.828434,24.046211,343.0,NaN,2.124,19.0,34.2,6 / 6,413527,2020-03-19 12:19:58:380
0.301669,-0.014365,9.758766,8.0,49.828434,24.046211,343.0,NaN,2.124,19.0,34.2,6 / 6,414027,2020-03-19 12:19:58:880
0.253785,0.038307,9.749189,8.0,49.828434,24.046211,343.0,NaN,2.124,19.0,34.2,6 / 6,414527,2020-03-19 12:19:59:380
0.277727,-0.014365,9.77792,8.0,49.828434,24.046211,343.0,NaN,2.124,19.0,34.2,6 / 6,415027,2020-03-19 12:19:59:880
0.282516,-0.02873,9.773131,8.0,49.828434,24.046211,343.0,NaN,2.124,19.0,34.2,6 / 6,415526,2020-03-19 12:20:00:379
0.21069,0.004788,9.768343,8.0,49.828434,24.046211,343.0,NaN,2.124,19.0,34.2,6 / 6,416027,2020-03-19 12:20:00:880
0.215478,-0.062249,9.773131,8.0,49.828434,24.046211,343.0,NaN,2.124,19.0,34.2,6 / 6,416527,2020-03-19 12:20:01:380
0.272939,0.019154,9.753978,8.0,49.828434,24.046211,343.0,NaN,2.124,19.0,34.2,6 / 6,417027,2020-03-19 12:20:01:880
0.225055,0.105345,9.734824,8.0,49.828434,24.046211,343.0,NaN,2.124,19.0,34.2,6 / 6,417527,2020-03-19 12:20:02:380
0.268151,-0.062249,9.77792,8.0,49.828434,24.046211,343.0,NaN,2.124,19.0,34.2,6 / 6,418026,2020-03-19 12:20:02:879
0.277727,-0.019154,9.773131,8.0,49.828434,24.046211,343.0,NaN,2.124,19.0,34.2,6 / 6,418527,2020-03-19 12:20:03:380
0.411803,0.110133,9.715671,8.0,49.828434,24.046211,343.0,NaN,2.124,19.0,34.2,6 / 6,419027,2020-03-19 12:20:03:880
0.282516,0.02873,9.77792,8.0,49.828434,24.046211,343.0,NaN,2.124,19.0,34.2,6 / 6,419526,2020-03-19 12:20:04:379
0.201113,-0.02873,9.753978,8.0,49.828434,24.046211,343.0,NaN,2.124,19.0,34.2,6 / 6,420027,2020-03-19 12:20:04:880
0.225055,0.009577,9.77792,8.0,49.828434,24.046211,343.0,NaN,2.124,19.0,34.2,6 / 6,420527,2020-03-19 12:20:05:380
0.258574,-0.067038,9.725247,8.0,49.828434,24.046211,343.0,NaN,2.124,19.0,34.2,6 / 6,421027,2020-03-19 12:20:05:880
0.277727,-0.019154,9.773131,8.0,49.828434,24.046211,343.0,NaN,2.124,19.0,34.2,6 / 6,421527,2020-03-19 12:20:06:380
0.253785,-0.02873,9.758766,8.0,49.828434,24.046211,343.0,NaN,2.124,19.0,34.2,6 / 6,422026,2020-03-19 12:20:06:879
0.253785,-0.009577,9.787497,8.0,49.828434,24.046211,343.0,NaN,2.124,19.0,34.2,6 / 6,422527,2020-03-19 12:20:07:380
0.277727,-0.023942,9.753978,8.0,49.828434,24.046211,343.0,NaN,2.124,19.0,34.2,6 / 6,423026,2020-03-19 12:20:07:879
0.248997,-0.014365,9.768343,8.0,49.828434,24.046211,343.0,NaN,2.124,19.0,34.2,6 / 6,423527,2020-03-19 12:20:08:380
0.272939,-0.038307,9.758766,8.0,49.828434,24.046211,343.0,NaN,2.124,19.0,34.2,6 / 6,424027,2020-03-19 12:20:08:880
0.263362,-0.023942,9.797073,8.0,49.828434,24.046211,343.0,NaN,2.124,19.0,34.2,6 / 6,424526,2020-03-19 12:20:09:379
0.368707,-0.086191,9.801862,8.0,49.828434,24.046211,343.0,NaN,2.124,19.0,34.2,6 / 6,425027,2020-03-19 12:20:09:880
0.23942,-0.138864,9.787497,8.0,49.828434,24.046211,343.0,NaN,2.124,19.0,34.2,6 / 6,425526,2020-03-19 12:20:10:379
0.263362,-0.081403,9.80665,8.0,49.828434,24.046211,343.0,NaN,2.124,19.0,34.2,6 / 6,426027,2020-03-19 12:20:10:880
0.272939,-0.02873,9.797073,8.0,49.828434,24.046211,343.0,NaN,2.124,19.0,34.2,6 / 6,426526,2020-03-19 12:20:11:379
0.272939,0.019154,9.753978,8.0,49.828434,24.046211,343.0,NaN,2.124,19.0,34.2,6 / 6,427027,2020-03-19 12:20:11:880
0.248997,-0.02873,9.77792,8.0,49.828434,24.046211,343.0,NaN,2.124,19.0,34.2,6 / 6,427527,2020-03-19 12:20:12:380
0.301669,-0.014365,9.782708,8.0,49.828434,24.046211,343.0,NaN,2.124,19.0,34.2,6 / 6,428026,2020-03-19 12:20:12:879
0.363919,-0.081403,9.768343,8.0,49.828434,24.046211,343.0,NaN,2.124,19.0,34.2,6 / 6,428527,2020-03-19 12:20:13:380
0.244209,-0.014365,9.730036,8.0,49.828434,24.046211,343.0,NaN,2.124,19.0,34.2,6 / 6,429027,2020-03-19 12:20:13:880
0.253785,-0.09098,9.763555,8.0,49.828434,24.046211,343.0,NaN,2.124,19.0,34.2,6 / 6,429526,2020-03-19 12:20:14:379
0.296881,-0.019154,9.77792,8.0,49.828434,24.046211,343.0,NaN,2.124,19.0,34.2,6 / 6,430027,2020-03-19 12:20:14:880
0.258574,-0.023942,9.773131,8.0,49.828434,24.046211,343.0,NaN,2.124,19.0,34.2,6 / 6,430527,2020-03-19 12:20:15:380
0.287304,0.009577,9.787497,8.0,49.828434,24.046211,343.0,NaN,2.124,19.0,34.2,6 / 6,431027,2020-03-19 12:20:15:880
0.248997,0.014365,9.763555,8.0,49.828434,24.046211,343.0,NaN,2.124,19.0,34.2,6 / 6,431527,2020-03-19 12:20:16:380
0.268151,-0.009577,9.787497,8.0,49.828434,24.046211,343.0,NaN,2.124,19.0,34.2,6 / 6,432027,2020-03-19 12:20:16:880
0.244209,-0.047884,9.763555,8.0,49.828434,24.046211,343.0,NaN,2.124,19.0,34.2,6 / 6,432527,2020-03-19 12:20:17:380
0.23942,-0.023942,9.773131,8.0,49.828434,24.046211,343.0,NaN,2.124,19.0,34.2,6 / 6,433027,2020-03-19 12:20:17:880
0.282516,-0.009577,9.744401,8.0,49.828434,24.046211,343.0,NaN,2.124,19.0,34.2,6 / 6,433527,2020-03-19 12:20:18:380
0.248997,-0.014365,9.749189,8.0,49.828434,24.046211,343.0,NaN,2.124,19.0,34.2,6 / 6,434026,2020-03-19 12:20:18:879
0.248997,-0.014365,9.768343,8.0,49.828434,24.046211,343.0,NaN,2.124,19.0,34.2,6 / 6,434526,2020-03-19 12:20:19:379
0.258574,-0.019154,9.749189,8.0,49.828434,24.046211,343.0,NaN,2.124,19.0,34.2,6 / 6,435027,2020-03-19 12:20:19:880
0.268151,-0.014365,9.753978,8.0,49.828434,24.046211,343.0,NaN,2.124,19.0,34.2,6 / 6,435527,2020-03-19 12:20:20:380
0.253785,-0.033519,9.782708,8.0,49.828434,24.046211,343.0,NaN,2.124,19.0,34.2,6 / 6,436027,2020-03-19 12:20:20:880
0.258574,-0.019154,9.763555,8.0,49.828434,24.046211,343.0,NaN,2.124,19.0,34.2,6 / 6,436528,2020-03-19 12:20:21:381
0.263362,-0.023942,9.77792,8.0,49.828434,24.046211,343.0,NaN,2.124,19.0,34.2,6 / 6,437026,2020-03-19 12:20:21:879
0.253785,-0.052672,9.773131,8.0,49.828434,24.046211,343.0,NaN,2.124,19.0,34.2,6 / 6,437527,2020-03-19 12:20:22:380
0.268151,-0.033519,9.773131,8.0,49.828434,24.046211,343.0,NaN,2.124,19.0,34.2,6 / 6,438027,2020-03-19 12:20:22:880
0.215478,0.019154,9.758766,8.0,49.828434,24.046211,343.0,NaN,2.124,19.0,34.2,6 / 6,438527,2020-03-19 12:20:23:380
0.225055,-0.038307,9.749189,8.0,49.828434,24.046211,343.0,NaN,2.124,19.0,34.2,6 / 6,439027,2020-03-19 12:20:23:880
0.296881,0.02873,9.792285,8.0,49.828434,24.046211,343.0,NaN,2.124,19.0,34.2,6 / 6,439527,2020-03-19 12:20:24:380
0.258574,-0.052672,9.749189,8.0,49.828434,24.046211,343.0,NaN,2.124,19.0,34.2,6 / 6,440027,2020-03-19 12:20:24:880
0.287304,-0.023942,9.77792,8.0,49.828434,24.046211,343.0,NaN,2.124,19.0,34.2,6 / 6,440527,2020-03-19 12:20:25:380
0.272939,-0.023942,9.744401,8.0,49.828434,24.046211,343.0,NaN,2.124,19.0,34.2,6 / 6,441027,2020-03-19 12:20:25:880
0.258574,-0.033519,9.763555,8.0,49.828434,24.046211,343.0,NaN,2.124,19.0,34.2,6 / 6,441526,2020-03-19 12:20:26:379
0.258574,-0.004788,9.758766,8.0,49.828434,24.046211,343.0,NaN,2.124,19.0,34.2,6 / 6,442026,2020-03-19 12:20:26:879
0.248997,-0.023942,9.77792,8.0,49.828434,24.046211,343.0,NaN,2.124,19.0,34.2,6 / 6,442527,2020-03-19 12:20:27:380
0.263362,-0.014365,9.787497,8.0,49.828434,24.046211,343.0,NaN,2.124,19.0,34.2,6 / 6,443027,2020-03-19 12:20:27:880
0.248997,-0.033519,9.77792,8.0,49.828434,24.046211,343.0,NaN,2.124,19.0,34.2,6 / 6,443527,2020-03-19 12:20:28:380
0.253785,-0.019154,9.782708,8.0,49.828434,24.046211,343.0,NaN,2.124,19.0,34.2,6 / 6,444027,2020-03-19 12:20:28:880
0.272939,-0.009577,9.773131,8.0,49.828434,24.046211,343.0,NaN,2.124,19.0,34.2,6 / 6,444527,2020-03-19 12:20:29:380
0.258574,-0.009577,9.77792,8.0,49.828434,24.046211,343.0,NaN,2.124,19.0,34.2,6 / 6,445027,2020-03-19 12:20:29:880
0.258574,-0.038307,9.758766,8.0,49.828434,24.046211,343.0,NaN,2.124,19.0,34.2,6 / 6,445527,2020-03-19 12:20:30:380
0.248997,-0.014365,9.77792,8.0,49.828434,24.046211,343.0,NaN,2.124,19.0,34.2,6 / 6,446027,2020-03-19 12:20:30:880
0.263362,-0.014365,9.77792,8.0,49.828434,24.046211,343.0,NaN,2.124,19.0,34.2,6 / 6,446527,2020-03-19 12:20:31:380
0.268151,-0.02873,9.749189,8.0,49.828434,24.046211,343.0,NaN,2.124,19.0,34.2,6 / 6,447026,2020-03-19 12:20:31:879
0.287304,-0.014365,9.758766,8.0,49.828434,24.046211,343.0,NaN,2.124,19.0,34.2,6 / 6,447527,2020-03-19 12:20:32:380
0.248997,-0.019154,9.787497,8.0,49.828434,24.046211,343.0,NaN,2.124,19.0,34.2,6 / 6,448027,2020-03-19 12:20:32:880
0.268151,-0.02873,9.753978,8.0,49.828434,24.046211,343.0,NaN,2.124,19.0,34.2,6 / 6,448527,2020-03-19 12:20:33:380
0.253785,-0.014365,9.739613,8.0,49.828434,24.046211,343.0,NaN,2.124,19.0,34.2,6 / 6,449027,2020-03-19 12:20:33:880
0.244209,-0.009577,9.763555,8.0,49.828434,24.046211,343.0,NaN,2.124,19.0,34.2,6 / 6,449527,2020-03-19 12:20:34:380
0.253785,-0.023942,9.773131,8.0,49.828434,24.046211,343.0,NaN,2.124,19.0,34.2,6 / 6,450026,2020-03-19 12:20:34:879
0.253785,-0.023942,9.773131,8.0,49.828434,24.046211,343.0,NaN,2.124,19.0,34.2,6 / 6,450526,2020-03-19 12:20:35:379
0.272939,-0.004788,9.773131,8.0,49.828434,24.046211,343.0,NaN,2.124,19.0,34.2,6 / 6,451026,2020-03-19 12:20:35:879
0.23942,-0.02873,9.763555,8.0,49.828434,24.046211,343.0,NaN,2.124,19.0,34.2,6 / 6,451526,2020-03-19 12:20:36:379
0.263362,-0.019154,9.797073,8.0,49.828434,24.046211,343.0,NaN,2.124,19.0,34.2,6 / 6,452026,2020-03-19 12:20:36:879
0.244209,-0.009577,9.782708,8.0,49.828434,24.046211,343.0,NaN,2.124,19.0,34.2,6 / 6,452527,2020-03-19 12:20:37:380
0.268151,-0.014365,9.758766,8.0,49.828434,24.046211,343.0,NaN,2.124,19.0,34.2,6 / 6,453027,2020-03-19 12:20:37:880
0.253785,-0.019154,9.763555,8.0,49.828434,24.046211,343.0,NaN,2.124,19.0,34.2,6 / 6,453527,2020-03-19 12:20:38:380
0.244209,-0.004788,9.749189,8.0,49.828434,24.046211,343.0,NaN,2.124,19.0,34.2,6 / 6,454026,2020-03-19 12:20:38:879
0.253785,-0.014365,9.749189,8.0,49.828434,24.046211,343.0,NaN,2.124,19.0,34.2,6 / 6,454526,2020-03-19 12:20:39:379
0.287304,0.023942,9.782708,8.0,49.828434,24.046211,343.0,NaN,2.124,19.0,34.2,6 / 6,455027,2020-03-19 12:20:39:880
0.253785,-0.043096,9.787497,8.0,49.828434,24.046211,343.0,NaN,2.124,19.0,34.2,6 / 6,455527,2020-03-19 12:20:40:380
0.277727,0.004788,9.782708,8.0,49.828434,24.046211,343.0,NaN,2.124,19.0,34.2,6 / 6,456027,2020-03-19 12:20:40:880
0.248997,-0.014365,9.768343,8.0,49.828434,24.046211,343.0,NaN,2.124,19.0,34.2,6 / 6,456527,2020-03-19 12:20:41:380
0.244209,-0.019154,9.768343,8.0,49.828434,24.046211,343.0,NaN,2.124,19.0,34.2,6 / 6,457027,2020-03-19 12:20:41:880
0.258574,-0.047884,9.749189,8.0,49.828434,24.046211,343.0,NaN,2.124,19.0,34.2,6 / 6,457527,2020-03-19 12:20:42:380
0.248997,-0.004788,9.763555,8.0,49.828434,24.046211,343.0,NaN,2.124,19.0,34.2,6 / 6,458027,2020-03-19 12:20:42:880
0.287304,-0.033519,9.749189,8.0,49.828434,24.046211,343.0,NaN,2.124,19.0,34.2,6 / 6,458527,2020-03-19 12:20:43:380
0.248997,-0.014365,9.797073,8.0,49.828434,24.046211,343.0,NaN,2.124,19.0,34.2,6 / 6,459027,2020-03-19 12:20:43:880
0.234632,-0.052672,9.768343,8.0,49.828434,24.046211,343.0,NaN,2.124,19.0,34.2,6 / 6,459527,2020-03-19 12:20:44:380
0.253785,-0.014365,9.753978,8.0,49.828434,24.046211,343.0,NaN,2.124,19.0,34.2,6 / 6,460026,2020-03-19 12:20:44:879
0.258574,-0.014365,9.739613,8.0,49.828434,24.046211,343.0,NaN,2.124,19.0,34.2,6 / 6,460527,2020-03-19 12:20:45:380
0.263362,-0.019154,9.773131,8.0,49.828434,24.046211,343.0,NaN,2.124,19.0,34.2,6 / 6,461026,2020-03-19 12:20:45:879
0.268151,-0.023942,9.753978,8.0,49.828434,24.046211,343.0,NaN,2.124,19.0,34.2,6 / 6,461527,2020-03-19 12:20:46:380
0.268151,-0.043096,9.763555,8.0,49.828434,24.046211,343.0,NaN,2.124,19.0,34.2,6 / 6,462027,2020-03-19 12:20:46:880
0.263362,-0.033519,9.758766,8.0,49.828434,24.046211,343.0,NaN,2.124,19.0,34.2,6 / 6,462527,2020-03-19 12:20:47:380
0.272939,-0.004788,9.768343,8.0,49.828434,24.046211,343.0,NaN,2.124,19.0,34.2,6 / 6,463027,2020-03-19 12:20:47:880
0.253785,-0.014365,9.773131,8.0,49.828434,24.046211,343.0,NaN,2.124,19.0,34.2,6 / 6,463527,2020-03-19 12:20:48:380
0.258574,-0.004788,9.749189,8.0,49.828434,24.046211,343.0,NaN,2.124,19.0,34.2,6 / 6,464027,2020-03-19 12:20:48:880
0.244209,-0.014365,9.773131,8.0,49.828434,24.046211,343.0,NaN,2.124,19.0,34.2,6 / 6,464526,2020-03-19 12:20:49:379
0.23942,-0.023942,9.787497,8.0,49.828434,24.046211,343.0,NaN,2.124,19.0,34.2,6 / 6,465027,2020-03-19 12:20:49:880
0.272939,-0.019154,9.782708,8.0,49.828434,24.046211,343.0,NaN,2.124,19.0,34.2,6 / 6,465526,2020-03-19 12:20:50:379
0.263362,-0.014365,9.787497,8.0,49.828434,24.046211,343.0,NaN,2.124,19.0,34.2,6 / 6,466027,2020-03-19 12:20:50:880
0.268151,-0.014365,9.763555,8.0,49.828434,24.046211,343.0,NaN,2.124,19.0,34.2,6 / 6,466527,2020-03-19 12:20:51:380
0.263362,-0.019154,9.744401,8.0,49.828434,24.046211,343.0,NaN,2.124,19.0,34.2,6 / 6,467027,2020-03-19 12:20:51:880
0.268151,-0.009577,9.782708,8.0,49.828434,24.046211,343.0,NaN,2.124,19.0,34.2,6 / 6,467527,2020-03-19 12:20:52:380
0.244209,-0.033519,9.768343,8.0,49.828434,24.046211,343.0,NaN,2.124,19.0,34.2,6 / 6,468027,2020-03-19 12:20:52:880
0.258574,0.009577,9.773131,8.0,49.828434,24.046211,343.0,NaN,2.124,19.0,34.2,6 / 6,468527,2020-03-19 12:20:53:380
0.253785,-0.023942,9.763555,8.0,49.828434,24.046211,343.0,NaN,2.124,19.0,34.2,6 / 6,469027,2020-03-19 12:20:53:880
0.263362,-0.033519,9.77792,8.0,49.828434,24.046211,343.0,NaN,2.124,19.0,34.2,6 / 6,469527,2020-03-19 12:20:54:380
0.272939,-0.009577,9.773131,8.0,49.828434,24.046211,343.0,NaN,2.124,19.0,34.2,6 / 6,470027,2020-03-19 12:20:54:880
0.272939,-0.043096,9.768343,8.0,49.828434,24.046211,343.0,NaN,2.124,19.0,34.2,6 / 6,470526,2020-03-19 12:20:55:379
0.268151,-0.033519,9.782708,8.0,49.828434,24.046211,343.0,NaN,2.124,19.0,34.2,6 / 6,471026,2020-03-19 12:20:55:879
0.253785,0.004788,9.763555,8.0,49.828434,24.046211,343.0,NaN,2.124,19.0,34.2,6 / 6,471527,2020-03-19 12:20:56:380
0.263362,-0.043096,9.739613,8.0,49.828434,24.046211,343.0,NaN,2.124,19.0,34.2,6 / 6,472027,2020-03-19 12:20:56:880
0.229843,-0.004788,9.77792,8.0,49.828434,24.046211,343.0,NaN,2.124,19.0,34.2,6 / 6,472527,2020-03-19 12:20:57:380
0.263362,-0.019154,9.758766,8.0,49.828434,24.046211,343.0,NaN,2.124,19.0,34.2,6 / 6,473027,2020-03-19 12:20:57:880
0.23942,-0.023942,9.773131,8.0,49.828434,24.046211,343.0,NaN,2.124,19.0,34.2,6 / 6,473527,2020-03-19 12:20:58:380
0.234632,0.02873,9.773131,8.0,49.828434,24.046211,343.0,NaN,2.124,19.0,34.2,6 / 6,474027,2020-03-19 12:20:58:880
0.282516,-0.033519,9.77792,8.0,49.828434,24.046211,343.0,NaN,2.124,19.0,34.2,6 / 6,474527,2020-03-19 12:20:59:380
0.339977,-0.067038,9.758766,8.0,49.828434,24.046211,343.0,NaN,2.124,19.0,34.2,6 / 6,475027,2020-03-19 12:20:59:880
0.229843,0.019154,9.768343,8.0,49.828434,24.046211,343.0,NaN,2.124,19.0,34.2,6 / 6,475526,2020-03-19 12:21:00:379
0.263362,-0.02873,9.916783,8.0,49.828434,24.046211,343.0,NaN,2.124,19.0,34.2,6 / 6,476027,2020-03-19 12:21:00:880
0.062249,-0.014365,9.619903,8.0,49.828434,24.046211,343.0,NaN,2.124,19.0,34.2,0 / 0,476527,2020-03-19 12:21:01:380
0.268151,-0.004788,9.758766,8.0,49.828434,24.046211,343.0,NaN,2.124,19.0,34.2,0 / 0,477027,2020-03-19 12:21:01:880
0.263362,-0.033519,9.744401,8.0,49.828434,24.046211,343.0,NaN,2.124,19.0,34.2,0 / 1,477526,2020-03-19 12:21:02:379
0.23942,-0.009577,9.763555,8.0,49.828434,24.046211,343.0,NaN,2.124,19.0,34.2,0 / 1,478027,2020-03-19 12:21:02:880
5.650316,-2.264915,10.093954,8.0,49.828434,24.046211,343.0,NaN,2.124,19.0,34.2,0 / 1,478528,2020-03-19 12:21:03:381
-9.054871,1.077391,21.988348,8.0,49.828434,24.046211,343.0,NaN,2.124,19.0,34.2,0 / 1,479027,2020-03-19 12:21:03:880
-2.025495,4.764462,7.623139,8.0,49.828434,24.046211,343.0,NaN,2.124,19.0,34.2,0 / 7,479527,2020-03-19 12:21:04:380
-0.852336,5.851429,7.757214,8.0,49.828434,24.046211,343.0,NaN,2.124,19.0,34.2,0 / 7,480027,2020-03-19 12:21:04:880
-0.699107,5.597644,7.61835,8.0,49.828434,24.046211,343.0,NaN,2.124,19.0,34.2,8 / 8,480527,2020-03-19 12:21:05:380
-0.608127,5.511452,7.556101,8.0,49.828434,24.046211,343.0,NaN,2.124,19.0,34.2,8 / 8,481026,2020-03-19 12:21:05:879
-1.345541,4.783615,8.058883,8.0,49.828434,24.046211,343.0,NaN,2.124,19.0,34.2,8 / 8,481527,2020-03-19 12:21:06:380
-0.296881,5.717354,7.647081,8.0,49.828434,24.046211,343.0,NaN,2.124,19.0,34.2,8 / 8,482027,2020-03-19 12:21:06:880
-0.464475,5.377377,6.392519,8.0,49.828434,24.046211,343.0,NaN,2.124,19.0,34.2,8 / 8,482527,2020-03-19 12:21:07:380
0.320823,6.708554,7.742849,8.0,49.828434,24.046211,343.0,NaN,2.124,19.0,34.2,8 / 8,483027,2020-03-19 12:21:07:880
0.871489,6.315904,7.809886,8.0,49.828434,24.046211,343.0,NaN,2.124,19.0,34.2,8 / 8,483527,2020-03-19 12:21:08:380
-0.617704,5.080496,8.145074,8.0,49.828434,24.046211,343.0,NaN,2.124,19.0,34.2,8 / 8,484029,2020-03-19 12:21:08:882
-0.191536,5.564125,7.781156,8.0,49.828434,24.046211,343.0,NaN,2.124,19.0,34.2,8 / 8,484527,2020-03-19 12:21:09:380
-0.244209,5.233725,8.111555,8.0,49.828434,24.046211,343.0,NaN,2.124,19.0,34.2,8 / 8,485026,2020-03-19 12:21:09:879
-0.287304,5.755661,8.777143,8.0,49.828434,24.046211,343.0,NaN,2.124,19.0,34.2,8 / 8,485527,2020-03-19 12:21:10:380
-0.162806,5.81791,7.647081,8.0,49.828434,24.046211,343.0,NaN,2.124,19.0,34.2,8 / 8,486026,2020-03-19 12:21:10:879
-0.220267,5.6982,8.001422,8.0,49.828434,24.046211,343.0,NaN,2.124,19.0,34.2,8 / 8,486527,2020-03-19 12:21:11:380
-0.11971,5.583278,8.087613,8.0,49.828434,24.046211,343.0,NaN,2.124,19.0,34.2,8 / 8,487027,2020-03-19 12:21:11:880
-0.009577,5.453992,8.250419,8.0,49.828434,24.046211,343.0,NaN,2.124,19.0,34.2,8 / 8,487527,2020-03-19 12:21:12:380
-0.177171,5.602432,7.982269,8.0,49.828434,24.046211,343.0,NaN,2.124,19.0,34.2,8 / 8,488027,2020-03-19 12:21:12:880
-0.129287,5.521029,8.178593,8.0,49.828434,24.046211,343.0,NaN,2.124,19.0,34.2,8 / 8,488527,2020-03-19 12:21:13:380
-0.177171,5.535394,8.015787,8.0,49.828434,24.046211,343.0,NaN,2.124,19.0,34.2,8 / 8,489027,2020-03-19 12:21:13:880
-0.076614,5.48751,8.121132,8.0,49.828434,24.046211,343.0,NaN,2.124,19.0,34.2,8 / 8,489526,2020-03-19 12:21:14:379
-0.296881,5.621586,7.37893,8.0,49.828434,24.046211,343.0,NaN,2.124,19.0,34.2,8 / 8,490027,2020-03-19 12:21:14:880
-0.110133,5.616797,7.886501,8.0,49.828434,24.046211,343.0,NaN,2.124,19.0,34.2,8 / 8,490527,2020-03-19 12:21:15:380
-0.354342,5.626374,7.647081,8.0,49.828434,24.046211,343.0,NaN,2.124,19.0,34.2,8 / 8,491027,2020-03-19 12:21:15:880
-0.057461,5.525818,7.905654,8.0,49.828434,24.046211,343.0,NaN,2.124,19.0,34.2,8 / 8,491527,2020-03-19 12:21:16:380
-0.11971,5.09965,9.006987,8.0,49.828434,24.046211,343.0,NaN,2.124,19.0,34.2,8 / 8,492027,2020-03-19 12:21:16:880
-0.167594,5.401319,8.006211,8.0,49.828434,24.046211,343.0,NaN,2.124,19.0,34.2,8 / 8,492527,2020-03-19 12:21:17:380
-0.052672,5.386954,8.025364,8.0,49.828434,24.046211,343.0,NaN,2.124,19.0,34.2,8 / 8,493026,2020-03-19 12:21:17:879
-0.205901,5.267244,7.896077,8.0,49.828434,24.046211,343.0,NaN,2.124,19.0,34.2,8 / 8,493527,2020-03-19 12:21:18:380
0.009577,5.372589,8.169016,8.0,49.828434,24.046211,343.0,NaN,2.124,19.0,34.2,8 / 8,494027,2020-03-19 12:21:18:880
-0.392649,5.243302,7.814675,8.0,49.828434,24.046211,343.0,NaN,2.124,19.0,34.2,8 / 8,494526,2020-03-19 12:21:19:379
-0.225055,5.415684,7.642292,8.0,49.828434,24.046211,343.0,NaN,2.124,19.0,34.2,8 / 8,495027,2020-03-19 12:21:19:880
-0.47884,5.329493,7.04853,8.0,49.828434,24.046211,343.0,NaN,2.124,19.0,34.2,8 / 8,495526,2020-03-19 12:21:20:379
-0.584185,5.195418,7.694965,8.0,49.828434,24.046211,343.0,NaN,2.124,19.0,34.2,8 / 8,496027,2020-03-19 12:21:20:880
-0.344765,5.291186,7.489063,8.0,49.828434,24.046211,343.0,NaN,2.124,19.0,34.2,8 / 8,496526,2020-03-19 12:21:21:379
-0.186748,5.45878,8.173805,8.0,49.828434,24.046211,343.0,NaN,2.124,19.0,34.2,8 / 8,497027,2020-03-19 12:21:21:880
-0.579397,5.104438,7.489063,8.0,49.828434,24.046211,343.0,NaN,2.124,19.0,34.2,8 / 8,497526,2020-03-19 12:21:22:379
0.038307,5.094861,8.058883,8.0,49.828434,24.046211,343.0,NaN,2.124,19.0,34.2,8 / 8,498026,2020-03-19 12:21:22:879
-0.976834,5.439626,7.354988,8.0,49.828434,24.046211,343.0,NaN,2.124,19.0,34.2,8 / 8,498527,2020-03-19 12:21:23:380
-0.579397,5.511452,8.06846,8.0,49.828434,24.046211,343.0,NaN,2.124,19.0,34.2,8 / 8,499027,2020-03-19 12:21:23:880
-0.134075,6.038177,7.690176,8.0,49.828434,24.046211,343.0,NaN,2.124,19.0,34.2,8 / 8,499527,2020-03-19 12:21:24:380
-0.588974,5.956774,7.541735,8.0,49.828434,24.046211,343.0,NaN,2.124,19.0,34.2,8 / 8,500027,2020-03-19 12:21:24:880
-0.833182,5.765238,8.164228,8.0,49.828434,24.046211,343.0,NaN,2.124,19.0,34.2,8 / 8,500526,2020-03-19 12:21:25:379
-0.148441,5.899313,7.824251,8.0,49.828434,24.046211,343.0,NaN,2.124,19.0,34.2,8 / 8,501027,2020-03-19 12:21:25:880
-0.062249,6.124368,7.805098,8.0,49.828434,24.046211,343.0,NaN,2.124,19.0,34.2,8 / 8,501527,2020-03-19 12:21:26:380
-0.746991,5.975928,7.450756,8.0,49.828434,24.046211,343.0,NaN,2.124,19.0,34.2,8 / 8,502027,2020-03-19 12:21:26:880
0.105345,6.258444,7.010223,8.0,49.828434,24.046211,343.0,NaN,2.124,19.0,34.2,8 / 8,502527,2020-03-19 12:21:27:380
-0.248997,5.372589,8.092402,8.0,49.828434,24.046211,343.0,NaN,2.124,19.0,34.2,8 / 8,503026,2020-03-19 12:21:27:879
-0.742202,5.401319,8.18817,8.0,49.828434,24.046211,343.0,NaN,2.124,19.0,34.2,8 / 8,503526,2020-03-19 12:21:28:379
-0.766144,4.505888,8.073248,8.0,49.828434,24.046211,343.0,NaN,2.124,19.0,34.2,8 / 8,504026,2020-03-19 12:21:28:879
-0.584185,4.912902,7.838617,8.0,49.828434,24.046211,343.0,NaN,2.124,19.0,34.2,8 / 8,504527,2020-03-19 12:21:29:380
-0.641646,4.927267,8.212112,8.0,49.828434,24.046211,343.0,NaN,2.124,19.0,34.2,8 / 8,505027,2020-03-19 12:21:29:880
0.071826,5.568913,8.039729,8.0,49.828434,24.046211,343.0,NaN,2.124,19.0,34.2,8 / 8,505527,2020-03-19 12:21:30:380
-0.172383,5.228937,8.202535,8.0,49.828434,24.046211,343.0,NaN,2.124,19.0,34.2,8 / 8,506027,2020-03-19 12:21:30:880
-0.292093,5.319916,7.876924,8.0,49.828434,24.046211,343.0,NaN,2.124,19.0,34.2,8 / 8,506526,2020-03-19 12:21:31:379
-0.148441,5.420473,8.015787,8.0,49.828434,24.046211,343.0,NaN,2.124,19.0,34.2,8 / 8,507026,2020-03-19 12:21:31:879
-0.45011,5.185841,8.116344,8.0,49.828434,24.046211,343.0,NaN,2.124,19.0,34.2,8 / 8,507527,2020-03-19 12:21:32:380
-0.124498,5.33907,8.18817,8.0,49.828434,24.046211,343.0,NaN,2.124,19.0,34.2,8 / 8,508027,2020-03-19 12:21:32:880
0.138864,5.133168,8.470686,8.0,49.828434,24.046211,343.0,NaN,2.124,19.0,34.2,8 / 8,508527,2020-03-19 12:21:33:380
-0.651223,4.817134,8.317456,8.0,49.828434,24.046211,343.0,NaN,2.124,19.0,34.2,8 / 8,509027,2020-03-19 12:21:33:880
-0.320823,5.080496,8.441956,8.0,49.828434,24.046211,343.0,NaN,2.124,19.0,34.2,8 / 8,509526,2020-03-19 12:21:34:379
-0.823605,4.515465,9.054871,8.0,49.828434,24.046211,343.0,NaN,2.124,19.0,34.2,8 / 8,510027,2020-03-19 12:21:34:880
0.344765,6.23929,7.886501,8.0,49.828434,24.046211,343.0,NaN,2.124,19.0,34.2,8 / 8,510527,2020-03-19 12:21:35:380
-0.153229,5.702989,8.269573,8.0,49.828434,24.046211,343.0,NaN,2.124,19.0,34.2,8 / 8,511027,2020-03-19 12:21:35:880
0.550666,6.229713,7.053318,8.0,49.828434,24.046211,343.0,NaN,2.124,19.0,34.2,8 / 8,511527,2020-03-19 12:21:36:380
0.775721,6.397307,8.030153,8.0,49.828434,24.046211,343.0,NaN,2.124,19.0,34.2,8 / 8,512026,2020-03-19 12:21:36:879
0.138864,6.301539,5.995081,8.0,49.828434,24.046211,343.0,NaN,2.124,19.0,34.2,8 / 8,512527,2020-03-19 12:21:37:380
0.550666,6.349423,7.374141,8.0,49.828434,24.046211,343.0,NaN,2.124,19.0,34.2,8 / 8,513026,2020-03-19 12:21:37:879
0.45011,6.042965,7.216124,8.0,49.828434,24.046211,343.0,NaN,2.124,19.0,34.2,8 / 8,513527,2020-03-19 12:21:38:380
0.277727,6.181829,7.220913,8.0,49.828434,24.046211,343.0,NaN,2.124,19.0,34.2,8 / 8,514026,2020-03-19 12:21:38:879
0.56982,6.59842,7.053318,8.0,49.828434,24.046211,343.0,NaN,2.124,19.0,34.2,8 / 8,514527,2020-03-19 12:21:39:380
0.445322,6.550536,7.350199,8.0,49.828434,24.046211,343.0,NaN,2.124,19.0,34.2,8 / 8,515026,2020-03-19 12:21:39:879
0.545878,6.335058,7.072472,8.0,49.828434,24.046211,343.0,NaN,2.124,19.0,34.2,8 / 8,515527,2020-03-19 12:21:40:380
0.215478,6.6894,7.393295,8.0,49.828434,24.046211,343.0,NaN,2.124,19.0,34.2,8 / 8,516027,2020-03-19 12:21:40:880
0.411803,6.311116,7.517793,8.0,49.828434,24.046211,343.0,NaN,2.124,19.0,34.2,8 / 8,516526,2020-03-19 12:21:41:379
0.191536,6.277597,7.661446,8.0,49.828434,24.046211,343.0,NaN,2.124,19.0,34.2,8 / 8,517027,2020-03-19 12:21:41:880
0.138864,6.665458,7.350199,8.0,49.828434,24.046211,343.0,NaN,2.124,19.0,34.2,8 / 8,517526,2020-03-19 12:21:42:379
-0.110133,6.325481,8.480263,8.0,49.828434,24.046211,343.0,NaN,2.124,19.0,34.2,8 / 8,518027,2020-03-19 12:21:42:880
0.311246,6.746861,7.374141,8.0,49.828434,24.046211,343.0,NaN,2.124,19.0,34.2,8 / 8,518527,2020-03-19 12:21:43:380
0.311246,7.153875,7.062895,8.0,49.828434,24.046211,343.0,NaN,2.124,19.0,34.2,8 / 8,519026,2020-03-19 12:21:43:879
0.071826,7.062895,6.574478,8.0,49.828434,24.046211,343.0,NaN,2.124,19.0,34.2,8 / 8,519527,2020-03-19 12:21:44:380
0.636858,5.774815,8.446744,8.0,49.828434,24.046211,343.0,NaN,2.124,19.0,34.2,8 / 8,520026,2020-03-19 12:21:44:879
0.229843,6.200983,7.182606,8.0,49.828434,24.046211,343.0,NaN,2.124,19.0,34.2,8 / 8,520527,2020-03-19 12:21:45:380
0.435745,6.392519,7.201759,8.0,49.828434,24.046211,343.0,NaN,2.124,19.0,34.2,8 / 8,521027,2020-03-19 12:21:45:880
1.288081,6.785168,8.044518,8.0,49.828434,24.046211,343.0,NaN,2.124,19.0,34.2,8 / 8,521527,2020-03-19 12:21:46:380
0.603339,6.397307,8.51857,8.0,49.828434,24.046211,343.0,NaN,2.124,19.0,34.2,8 / 8,522026,2020-03-19 12:21:46:879
-0.052672,6.066907,8.058883,8.0,49.828434,24.046211,343.0,NaN,2.124,19.0,34.2,8 / 8,522527,2020-03-19 12:21:47:380
-0.009577,6.042965,7.268797,8.0,49.828434,24.046211,343.0,NaN,2.124,19.0,34.2,8 / 8,523026,2020-03-19 12:21:47:879
