ACCELEROMETER X (m/s²),ACCELEROMETER Y (m/s²),ACCELEROMETER Z (m/s²),PROXIMITY (m),LOCATION Latitude : ,LOCATION Longitude : ,LOCATION Altitude ( m),LOCATION Altitude-google ( m),LOCATION Speed ( Kmh),LOCATION Accuracy ( m),LOCATION ORIENTATION (°),Satellites in range,Time since start in ms ,YYYY-MO-DD HH-MI-SS_SSS
3.337517,-0.067038,6.44998,8.0,49.848316,24.036472,409.0,NaN,2.592,13.0,0.0,0 / 1,28,2020-03-19 20:23:23:868
5.726931,-2.873042,-1.221043,8.0,49.848316,24.036472,409.0,NaN,2.592,13.0,0.0,0 / 5,528,2020-03-19 20:23:24:368
5.712566,-5.295974,-0.421379,0.0,49.848316,24.036472,409.0,NaN,2.592,13.0,0.0,0 / 5,1028,2020-03-19 20:23:24:868
8.37013,-9.706094,4.429273,0.0,49.848774,24.036413,370.0,NaN,4.14,11.0,0.0,10 / 17,1528,2020-03-19 20:23:25:368
5.133168,-9.179369,2.863465,0.0,49.848774,24.036413,370.0,NaN,4.14,11.0,0.0,10 / 17,2028,2020-03-19 20:23:25:868
9.030929,-10.922348,3.126828,0.0,49.848774,24.036413,370.0,NaN,4.14,11.0,0.0,10 / 17,2528,2020-03-19 20:23:26:368
4.434062,-11.669339,-3.32794,0.0,49.848774,24.036413,370.0,NaN,4.14,11.0,0.0,10 / 17,3028,2020-03-19 20:23:26:868
2.274492,-8.825027,-1.891419,0.0,49.848774,24.036413,370.0,NaN,4.14,11.0,0.0,10 / 17,3528,2020-03-19 20:23:27:368
-1.01993,-5.559336,-1.556231,0.0,49.848774,24.036413,370.0,NaN,4.14,11.0,0.0,10 / 17,4028,2020-03-19 20:23:27:868
-1.47004,-8.197746,0.277727,0.0,49.848774,24.036413,370.0,NaN,4.14,11.0,0.0,10 / 17,4528,2020-03-19 20:23:28:368
6.823475,-11.702858,-3.476381,0.0,49.848774,24.036413,370.0,NaN,4.14,11.0,0.0,10 / 17,5028,2020-03-19 20:23:28:868
2.317587,-8.537724,-7.671022,0.0,49.848774,24.036413,370.0,NaN,4.14,11.0,0.0,10 / 17,5528,2020-03-19 20:23:29:368
1.608904,-9.260772,0.665588,0.0,49.848774,24.036413,370.0,NaN,4.14,11.0,0.0,10 / 17,6028,2020-03-19 20:23:29:868
-1.872266,-4.515464,-1.355118,0.0,49.848774,24.036413,370.0,NaN,4.14,11.0,0.0,10 / 17,6528,2020-03-19 20:23:30:368
2.437297,-8.202534,0.378284,0.0,49.848774,24.036413,370.0,NaN,4.14,11.0,0.0,10 / 17,7028,2020-03-19 20:23:30:868
6.727707,-13.752295,-3.557784,0.0,49.848774,24.036413,370.0,NaN,4.14,11.0,0.0,10 / 17,7528,2020-03-19 20:23:31:368
-15.059528,-0.919373,-10.821792,0.0,49.848774,24.036413,370.0,NaN,4.14,11.0,0.0,10 / 17,8028,2020-03-19 20:23:31:868
4.946421,-10.232818,0.349553,0.0,49.848774,24.036413,370.0,NaN,4.14,11.0,0.0,10 / 17,8528,2020-03-19 20:23:32:368
-2.054225,-4.266467,-0.871489,0.0,49.848774,24.036413,370.0,NaN,4.14,11.0,0.0,10 / 17,9028,2020-03-19 20:23:32:868
3.193865,-9.514558,-0.316035,0.0,49.848774,24.036413,370.0,NaN,4.14,11.0,0.0,10 / 17,9528,2020-03-19 20:23:33:368
-5.774814,-15.222335,-0.627281,0.0,49.848774,24.036413,370.0,NaN,4.14,11.0,0.0,10 / 17,10028,2020-03-19 20:23:33:868
5.722142,-11.597513,-1.92015,0.0,49.848774,24.036413,370.0,NaN,4.14,11.0,0.0,10 / 17,10529,2020-03-19 20:23:34:369
2.193089,-12.210428,-0.646434,0.0,49.848774,24.036413,370.0,NaN,4.14,11.0,0.0,10 / 17,11029,2020-03-19 20:23:34:869
-0.421379,-4.67827,-2.552219,0.0,49.848774,24.036413,370.0,NaN,4.14,11.0,0.0,10 / 17,11529,2020-03-19 20:23:35:369
0.445322,-8.226476,0.651223,0.0,49.848774,24.036413,370.0,NaN,4.14,11.0,0.0,10 / 17,12029,2020-03-19 20:23:35:869
-3.069367,-13.546393,-0.21069,0.0,49.848774,24.036413,370.0,NaN,4.14,11.0,0.0,10 / 17,12529,2020-03-19 20:23:36:369
3.806781,-8.437167,-4.663905,0.0,49.848774,24.036413,370.0,NaN,4.14,11.0,0.0,10 / 17,13028,2020-03-19 20:23:36:868
0.244209,-8.896853,1.877054,0.0,49.848774,24.036413,370.0,NaN,4.14,11.0,0.0,10 / 17,13528,2020-03-19 20:23:37:368
-2.715025,-6.186617,0.656011,0.0,49.848774,24.036413,370.0,NaN,4.14,11.0,0.0,10 / 17,14028,2020-03-19 20:23:37:868
9.399636,-15.480908,-2.274491,0.0,49.848774,24.036413,370.0,NaN,4.14,11.0,0.0,10 / 17,14528,2020-03-19 20:23:38:368
-3.859453,-15.284584,0.512359,0.0,49.848774,24.036413,370.0,NaN,4.14,11.0,0.0,10 / 17,15028,2020-03-19 20:23:38:868
11.228806,-11.482592,9.409213,0.0,49.848774,24.036413,370.0,NaN,4.14,11.0,0.0,10 / 17,15528,2020-03-19 20:23:39:368
4.616021,-10.366894,-2.035071,0.0,49.848774,24.036413,370.0,NaN,4.14,11.0,0.0,10 / 17,16028,2020-03-19 20:23:39:868
-1.517924,-5.497087,-0.181959,0.0,49.848774,24.036413,370.0,NaN,4.14,11.0,0.0,10 / 17,16528,2020-03-19 20:23:40:368
-2.437297,-9.710882,1.838747,0.0,49.848774,24.036413,370.0,NaN,4.14,11.0,0.0,10 / 17,17029,2020-03-19 20:23:40:869
-1.915361,-13.838486,-3.974375,0.0,49.848774,24.036413,370.0,NaN,4.14,11.0,0.0,10 / 17,17529,2020-03-19 20:23:41:369
4.903325,-8.116343,-4.659116,0.0,49.848774,24.036413,370.0,NaN,4.14,11.0,0.0,10 / 17,18028,2020-03-19 20:23:41:868
-0.383072,-9.131485,0.368707,0.0,49.848774,24.036413,370.0,NaN,4.14,11.0,0.0,10 / 17,18529,2020-03-19 20:23:42:369
6.550536,-10.146626,-0.397437,0.0,49.848774,24.036413,370.0,NaN,4.14,11.0,0.0,10 / 17,19029,2020-03-19 20:23:42:869
-2.925714,-4.453215,7.086837,0.0,49.848774,24.036413,370.0,NaN,4.14,11.0,0.0,10 / 17,19529,2020-03-19 20:23:43:369
-4.754884,-13.144167,0.02873,0.0,49.848774,24.036413,370.0,NaN,4.14,11.0,0.0,10 / 17,20029,2020-03-19 20:23:43:869
2.312799,-8.03494,0.009577,0.0,49.848774,24.036413,370.0,NaN,4.14,11.0,0.0,10 / 17,20529,2020-03-19 20:23:44:369
1.297657,-9.706094,1.35033,0.0,49.848774,24.036413,370.0,NaN,4.14,11.0,0.0,10 / 17,21029,2020-03-19 20:23:44:869
-4.419696,-3.44765,1.786075,0.0,49.848774,24.036413,370.0,NaN,4.14,11.0,0.0,10 / 17,21529,2020-03-19 20:23:45:369
6.430826,-10.625467,-4.022259,0.0,49.848774,24.036413,370.0,NaN,4.14,11.0,0.0,10 / 17,22029,2020-03-19 20:23:45:869
-0.004788,-14.872781,-2.825158,0.0,49.848774,24.036413,370.0,NaN,4.14,11.0,0.0,10 / 17,22529,2020-03-19 20:23:46:369
3.964798,-9.318233,-5.889736,0.0,49.848774,24.036413,370.0,NaN,4.14,11.0,0.0,10 / 17,23029,2020-03-19 20:23:46:869
-0.440533,-9.68694,1.072602,0.0,49.848774,24.036413,370.0,NaN,4.14,11.0,0.0,10 / 17,23528,2020-03-19 20:23:47:368
-4.429273,-4.151545,2.298434,0.0,49.848774,24.036413,370.0,NaN,4.14,11.0,0.0,10 / 17,24029,2020-03-19 20:23:47:869
1.450886,-9.064447,0.043096,0.0,49.848774,24.036413,370.0,NaN,4.14,11.0,0.0,10 / 17,24528,2020-03-19 20:23:48:368
3.203442,-11.918336,-1.891419,0.0,49.848774,24.036413,370.0,NaN,4.14,11.0,0.0,10 / 17,25028,2020-03-19 20:23:48:868
-16.634912,2.327164,-1.905785,0.0,49.848774,24.036413,370.0,NaN,4.14,11.0,0.0,10 / 17,25528,2020-03-19 20:23:49:368
1.896208,-9.854534,1.647211,0.0,49.848774,24.036413,370.0,NaN,4.14,11.0,0.0,10 / 17,26028,2020-03-19 20:23:49:868
0.746991,-5.822698,-2.8491,0.0,49.848774,24.036413,370.0,NaN,4.14,11.0,0.0,10 / 17,26528,2020-03-19 20:23:50:368
3.983952,-8.604761,0.454898,0.0,49.848774,24.036413,370.0,NaN,4.14,11.0,0.0,10 / 17,27029,2020-03-19 20:23:50:869
-5.032612,-15.030798,0.339977,0.0,49.848774,24.036413,370.0,NaN,4.14,11.0,0.0,10 / 17,27529,2020-03-19 20:23:51:369
3.356671,-20.997149,-14.652514,0.0,49.848774,24.036413,370.0,NaN,4.14,11.0,0.0,10 / 17,28029,2020-03-19 20:23:51:869
3.926491,-10.601525,-1.49877,0.0,49.848774,24.036413,370.0,NaN,4.14,11.0,0.0,10 / 17,28529,2020-03-19 20:23:52:369
-1.944092,-3.936067,0.842759,0.0,49.848774,24.036413,370.0,NaN,4.14,11.0,0.0,10 / 17,29029,2020-03-19 20:23:52:869
0.411803,-9.232041,-0.057461,0.0,49.848774,24.036413,370.0,NaN,4.14,11.0,0.0,10 / 17,29528,2020-03-19 20:23:53:368
1.063026,-7.982268,2.322376,0.0,49.848774,24.036413,370.0,NaN,4.14,11.0,0.0,10 / 17,30028,2020-03-19 20:23:53:868
10.060435,-18.124107,-3.404555,0.0,49.848774,24.036413,370.0,NaN,4.14,11.0,0.0,10 / 17,30528,2020-03-19 20:23:54:368
3.873819,-13.584701,-1.35033,0.0,49.848774,24.036413,370.0,NaN,4.14,11.0,0.0,10 / 17,31028,2020-03-19 20:23:54:868
4.64954,-17.410633,-12.617443,0.0,49.848774,24.036413,370.0,NaN,4.14,11.0,0.0,10 / 17,31528,2020-03-19 20:23:55:368
-0.177171,-8.504205,0.263362,0.0,49.848774,24.036413,370.0,NaN,4.14,11.0,0.0,10 / 17,32028,2020-03-19 20:23:55:868
2.767697,-7.584831,0.790087,0.0,49.848774,24.036413,370.0,NaN,4.14,11.0,0.0,10 / 17,32529,2020-03-19 20:23:56:369
0.502782,-18.56464,-5.482722,0.0,49.848774,24.036413,370.0,NaN,4.14,11.0,0.0,10 / 17,33029,2020-03-19 20:23:56:869
0.948104,-12.320562,-3.821146,0.0,49.848774,24.036413,370.0,NaN,4.14,11.0,0.0,10 / 17,33528,2020-03-19 20:23:57:368
-8.135497,-2.954445,-4.955997,0.0,49.848774,24.036413,370.0,NaN,4.14,11.0,0.0,10 / 17,34028,2020-03-19 20:23:57:868
4.304775,-11.358093,1.340753,0.0,49.848774,24.036413,370.0,NaN,4.14,11.0,0.0,10 / 17,34528,2020-03-19 20:23:58:368
-1.551443,-3.045424,0.890643,0.0,49.848774,24.036413,370.0,NaN,4.14,11.0,0.0,10 / 17,35028,2020-03-19 20:23:58:868
1.403002,-8.676587,-0.407014,0.0,49.848774,24.036413,370.0,NaN,4.14,11.0,0.0,10 / 17,35528,2020-03-19 20:23:59:368
-7.28795,-17.357962,3.011906,0.0,49.848774,24.036413,370.0,NaN,4.14,11.0,0.0,10 / 17,36028,2020-03-19 20:23:59:868
8.322245,-22.055386,-6.665457,0.0,49.848774,24.036413,370.0,NaN,4.14,11.0,0.0,10 / 17,36528,2020-03-19 20:24:00:368
3.337517,-10.654198,-1.034295,0.0,49.848774,24.036413,370.0,NaN,4.14,11.0,0.0,10 / 17,37028,2020-03-19 20:24:00:868
3.624822,-8.015787,-5.78918,0.0,49.848774,24.036413,370.0,NaN,4.14,11.0,0.0,10 / 17,37528,2020-03-19 20:24:01:368
0.732626,-9.050082,0.555455,0.0,49.848774,24.036413,370.0,NaN,4.14,11.0,0.0,10 / 17,38028,2020-03-19 20:24:01:868
-1.446098,-5.535394,-0.110133,0.0,49.848774,24.036413,370.0,NaN,4.14,11.0,0.0,10 / 17,38528,2020-03-19 20:24:02:368
-2.657564,-7.603985,2.724602,0.0,49.848774,24.036413,370.0,NaN,4.14,11.0,0.0,10 / 17,39028,2020-03-19 20:24:02:868
-5.152322,-11.923124,-5.664681,0.0,49.848774,24.036413,370.0,NaN,4.14,11.0,0.0,10 / 17,39528,2020-03-19 20:24:03:368
-0.837971,-7.101202,-4.884171,0.0,49.848774,24.036413,370.0,NaN,4.14,11.0,0.0,10 / 17,40028,2020-03-19 20:24:03:868
-0.009577,-9.102755,-0.263362,0.0,49.848774,24.036413,370.0,NaN,4.14,11.0,0.0,10 / 17,40528,2020-03-19 20:24:04:368
-2.178723,-6.157887,1.446098,0.0,49.848774,24.036413,370.0,NaN,4.14,11.0,0.0,10 / 17,41028,2020-03-19 20:24:04:868
-0.35913,-7.331045,2.207454,0.0,49.848774,24.036413,370.0,NaN,4.14,11.0,0.0,10 / 17,41528,2020-03-19 20:24:05:368
3.782839,-8.810662,0.627281,0.0,49.848774,24.036413,370.0,NaN,4.14,11.0,0.0,10 / 17,42028,2020-03-19 20:24:05:868
0.110133,-17.764977,-6.521805,0.0,49.848774,24.036413,370.0,NaN,4.14,11.0,0.0,10 / 17,42528,2020-03-19 20:24:06:368
0.35913,-12.076353,-0.493206,0.0,49.848774,24.036413,370.0,NaN,4.14,11.0,0.0,10 / 17,43028,2020-03-19 20:24:06:868
0.081403,-10.582372,-10.481815,0.0,49.848774,24.036413,370.0,NaN,4.14,11.0,0.0,10 / 17,43528,2020-03-19 20:24:07:368
-0.201113,-8.872911,0.344765,0.0,49.848774,24.036413,370.0,NaN,4.14,11.0,0.0,10 / 17,44028,2020-03-19 20:24:07:868
4.865018,-10.783484,1.024718,0.0,49.848774,24.036413,370.0,NaN,4.14,11.0,0.0,10 / 17,44528,2020-03-19 20:24:08:368
7.876924,-29.314606,-9.021352,0.0,49.848774,24.036413,370.0,NaN,4.14,11.0,0.0,10 / 17,45029,2020-03-19 20:24:08:869
-0.354342,-13.761871,-4.534618,0.0,49.848774,24.036413,370.0,NaN,4.14,11.0,0.0,10 / 17,45529,2020-03-19 20:24:09:369
-7.939172,4.362236,9.792285,0.0,49.848774,24.036413,370.0,NaN,4.14,11.0,0.0,10 / 17,46029,2020-03-19 20:24:09:869
0.45011,-11.51611,-0.588974,0.0,49.848774,24.036413,370.0,NaN,4.14,11.0,0.0,10 / 17,46529,2020-03-19 20:24:10:369
-3.351882,-4.161122,1.489194,0.0,49.848774,24.036413,370.0,NaN,4.14,11.0,0.0,10 / 17,47029,2020-03-19 20:24:10:869
1.824382,-7.991845,1.278504,0.0,49.848774,24.036413,370.0,NaN,4.14,11.0,0.0,10 / 17,47528,2020-03-19 20:24:11:368
0.512359,-13.939042,-4.836287,0.0,49.848774,24.036413,370.0,NaN,4.14,11.0,0.0,10 / 17,48028,2020-03-19 20:24:11:868
-8.853758,-3.581726,5.382166,0.0,49.848774,24.036413,370.0,NaN,4.14,11.0,0.0,10 / 17,48528,2020-03-19 20:24:12:368
-0.02873,-11.678916,-0.038307,0.0,49.848774,24.036413,370.0,NaN,4.14,11.0,0.0,10 / 17,49028,2020-03-19 20:24:12:868
-1.714248,-14.915876,-10.271125,0.0,49.848774,24.036413,370.0,NaN,4.14,11.0,0.0,10 / 17,49528,2020-03-19 20:24:13:368
2.877831,-10.175357,-1.675941,0.0,49.848774,24.036413,370.0,NaN,4.14,11.0,0.0,10 / 17,50028,2020-03-19 20:24:13:868
-2.197877,-3.840299,1.364695,0.0,49.848774,24.036413,370.0,NaN,4.14,11.0,0.0,10 / 17,50528,2020-03-19 20:24:14:368
-0.881066,-8.418014,0.114922,0.0,49.848774,24.036413,370.0,NaN,4.14,11.0,0.0,10 / 17,51028,2020-03-19 20:24:14:868
1.580173,-10.160992,-1.963245,0.0,49.848774,24.036413,370.0,NaN,4.14,11.0,0.0,10 / 17,51528,2020-03-19 20:24:15:368
-1.197101,-6.732495,16.76899,0.0,49.848774,24.036413,370.0,NaN,4.14,11.0,0.0,10 / 17,52028,2020-03-19 20:24:15:868
-1.043872,-12.837709,-0.933739,0.0,49.848774,24.036413,370.0,NaN,4.14,11.0,0.0,10 / 17,52529,2020-03-19 20:24:16:369
1.565808,-18.842367,-10.453085,0.0,49.848774,24.036413,370.0,NaN,4.14,11.0,0.0,10 / 17,53029,2020-03-19 20:24:16:869
-0.857124,-11.209652,0.770933,0.0,49.848774,24.036413,370.0,NaN,4.14,11.0,0.0,10 / 17,53529,2020-03-19 20:24:17:369
-0.464475,-6.95755,-4.625597,0.0,49.848774,24.036413,370.0,NaN,4.14,11.0,0.0,10 / 17,54029,2020-03-19 20:24:17:869
-0.474052,-8.552089,0.191536,0.0,49.848774,24.036413,370.0,NaN,4.14,11.0,0.0,10 / 17,54529,2020-03-19 20:24:18:369
4.204219,-11.161768,1.249773,0.0,49.848774,24.036413,370.0,NaN,4.14,11.0,0.0,10 / 17,55029,2020-03-19 20:24:18:869
-8.101978,-10.055647,8.657434,0.0,49.848774,24.036413,370.0,NaN,4.14,11.0,0.0,10 / 17,55529,2020-03-19 20:24:19:369
0.684742,-16.658855,-2.748543,0.0,49.848774,24.036413,370.0,NaN,4.14,11.0,0.0,10 / 17,56029,2020-03-19 20:24:19:869
-2.255338,-12.258312,-11.769896,0.0,49.848774,24.036413,370.0,NaN,4.14,11.0,0.0,10 / 17,56528,2020-03-19 20:24:20:368
-3.08852,-9.485827,-1.441309,0.0,49.848774,24.036413,370.0,NaN,4.14,11.0,0.0,10 / 17,57028,2020-03-19 20:24:20:868
-2.001553,-15.093047,-15.227123,0.0,49.848774,24.036413,370.0,NaN,4.14,11.0,0.0,10 / 17,57528,2020-03-19 20:24:21:368
-1.029507,-8.647857,0.105345,0.0,49.848774,24.036413,370.0,NaN,4.14,11.0,0.0,10 / 17,58028,2020-03-19 20:24:21:868
0.521936,-7.326257,1.431733,0.0,49.848774,24.036413,370.0,NaN,4.14,11.0,0.0,10 / 17,58529,2020-03-19 20:24:22:369
7.273585,-20.465635,-7.671022,0.0,49.848774,24.036413,370.0,NaN,4.14,11.0,0.0,10 / 17,59029,2020-03-19 20:24:22:869
-5.468356,-13.235147,-3.303998,0.0,49.848774,24.036413,370.0,NaN,4.14,11.0,0.0,10 / 17,59528,2020-03-19 20:24:23:368
2.27928,-8.772355,-4.371812,0.0,49.848774,24.036413,370.0,NaN,4.14,11.0,0.0,10 / 17,60028,2020-03-19 20:24:23:868
-3.174711,-9.404425,0.258574,0.0,49.848774,24.036413,370.0,NaN,4.14,11.0,0.0,10 / 17,60528,2020-03-19 20:24:24:368
-3.864241,-2.60968,1.805228,0.0,49.848774,24.036413,370.0,NaN,4.14,11.0,0.0,10 / 17,61028,2020-03-19 20:24:24:868
-4.290409,-8.183381,-0.986411,0.0,49.848774,24.036413,370.0,NaN,4.14,11.0,0.0,10 / 17,61528,2020-03-19 20:24:25:368
-3.174711,-3.399766,1.556231,0.0,49.848774,24.036413,370.0,NaN,4.14,11.0,0.0,10 / 17,62029,2020-03-19 20:24:25:869
-6.890512,-7.565677,-0.636858,0.0,49.848774,24.036413,370.0,NaN,4.14,11.0,0.0,10 / 17,62529,2020-03-19 20:24:26:369
-9.102755,-15.533581,0.35913,0.0,49.848774,24.036413,370.0,NaN,4.14,11.0,0.0,10 / 17,63029,2020-03-19 20:24:26:869
-3.074155,-22.893356,-8.978256,0.0,49.848774,24.036413,370.0,NaN,4.14,11.0,0.0,10 / 17,63529,2020-03-19 20:24:27:369
-1.216254,-11.889606,1.201889,0.0,49.848774,24.036413,370.0,NaN,4.14,11.0,0.0,10 / 17,64029,2020-03-19 20:24:27:869
-3.672705,-5.439626,-5.602432,0.0,49.848774,24.036413,370.0,NaN,4.14,11.0,0.0,10 / 17,64528,2020-03-19 20:24:28:368
1.321599,-8.552089,0.684742,0.0,49.848774,24.036413,370.0,NaN,4.14,11.0,0.0,10 / 17,65028,2020-03-19 20:24:28:868
3.035848,-12.014104,-0.435745,0.0,49.848774,24.036413,370.0,NaN,4.14,11.0,0.0,10 / 17,65528,2020-03-19 20:24:29:368
-0.967257,-8.911219,0.02873,0.0,49.848774,24.036413,370.0,NaN,4.14,11.0,0.0,10 / 17,66028,2020-03-19 20:24:29:868
-2.643199,-12.62702,-3.921702,0.0,49.848774,24.036413,370.0,NaN,4.14,11.0,0.0,10 / 17,66528,2020-03-19 20:24:30:368
-9.289502,1.364695,9.691729,0.0,49.848774,24.036413,370.0,NaN,4.14,11.0,0.0,10 / 17,67028,2020-03-19 20:24:30:868
-3.193865,-12.684481,-2.154781,0.0,49.848774,24.036413,370.0,NaN,4.14,11.0,0.0,10 / 17,67528,2020-03-19 20:24:31:368
-3.845088,-11.559206,-15.241488,0.0,49.848774,24.036413,370.0,NaN,4.14,11.0,0.0,10 / 17,68028,2020-03-19 20:24:31:868
-1.781286,-8.384495,0.632069,0.0,49.848774,24.036413,370.0,NaN,4.14,11.0,0.0,10 / 17,68529,2020-03-19 20:24:32:369
-1.086968,-5.123591,2.557007,0.0,49.848774,24.036413,370.0,NaN,4.14,11.0,0.0,10 / 17,69029,2020-03-19 20:24:32:869
1.039084,-10.223241,-0.766144,0.0,49.848774,24.036413,370.0,NaN,4.14,11.0,0.0,10 / 17,69529,2020-03-19 20:24:33:369
1.632846,-8.944737,-0.143652,0.0,49.848774,24.036413,370.0,NaN,4.14,11.0,0.0,10 / 17,70029,2020-03-19 20:24:33:869
3.806781,-10.697293,0.890643,0.0,49.848774,24.036413,370.0,NaN,4.14,11.0,0.0,10 / 17,70528,2020-03-19 20:24:34:368
-4.529829,-12.210428,-3.505111,0.0,49.848774,24.036413,370.0,NaN,4.14,11.0,0.0,10 / 17,71028,2020-03-19 20:24:34:868
-2.8491,-4.644751,-5.200206,0.0,49.848774,24.036413,370.0,NaN,4.14,11.0,0.0,10 / 17,71528,2020-03-19 20:24:35:368
-1.819593,-9.595961,1.225831,0.0,49.848774,24.036413,370.0,NaN,4.14,11.0,0.0,10 / 17,72028,2020-03-19 20:24:35:868
-2.470816,-1.345541,0.699107,0.0,49.848774,24.036413,370.0,NaN,4.14,11.0,0.0,10 / 17,72528,2020-03-19 20:24:36:368
-5.928043,-7.651869,-0.684742,0.0,49.848774,24.036413,370.0,NaN,4.14,11.0,0.0,10 / 17,73028,2020-03-19 20:24:36:868
-13.378799,-14.432248,3.878607,0.0,49.848774,24.036413,370.0,NaN,4.14,11.0,0.0,10 / 17,73529,2020-03-19 20:24:37:369
-4.563348,-6.593631,2.255338,0.0,49.848774,24.036413,370.0,NaN,4.14,11.0,0.0,10 / 17,74029,2020-03-19 20:24:37:869
-14.896723,-17.448942,4.548983,0.0,49.848774,24.036413,370.0,NaN,4.14,11.0,0.0,10 / 17,74529,2020-03-19 20:24:38:369
-9.222465,-25.096022,-19.292477,0.0,49.848774,24.036413,370.0,NaN,4.14,11.0,0.0,10 / 17,75029,2020-03-19 20:24:38:869
1.106121,-9.753978,1.149217,0.0,49.848774,24.036413,370.0,NaN,4.14,11.0,0.0,10 / 17,75529,2020-03-19 20:24:39:369
-3.572149,-2.710236,1.910573,0.0,49.848774,24.036413,370.0,NaN,4.14,11.0,0.0,10 / 17,76029,2020-03-19 20:24:39:869
-5.741296,-8.164227,-2.020706,0.0,49.848774,24.036413,370.0,NaN,4.14,11.0,0.0,10 / 17,76529,2020-03-19 20:24:40:369
-4.266467,-12.847286,-4.046201,0.0,49.848774,24.036413,370.0,NaN,4.14,11.0,0.0,10 / 17,77029,2020-03-19 20:24:40:869
-10.716447,2.705448,-2.561796,0.0,49.848774,24.036413,370.0,NaN,4.14,11.0,0.0,10 / 17,77528,2020-03-19 20:24:41:368
-2.566584,-12.761095,-0.905008,0.0,49.848774,24.036413,370.0,NaN,4.14,11.0,0.0,0 / 0,78028,2020-03-19 20:24:41:868
-6.277597,-29.759928,-18.708292,0.0,49.848774,24.036413,370.0,NaN,4.14,11.0,0.0,0 / 0,78529,2020-03-19 20:24:42:369
1.580173,-11.956643,-0.90022,0.0,49.848774,24.036413,370.0,NaN,4.14,11.0,0.0,0 / 3,79028,2020-03-19 20:24:42:868
-3.768473,-2.140416,2.466028,0.0,49.848774,24.036413,370.0,NaN,4.14,11.0,0.0,0 / 3,79528,2020-03-19 20:24:43:368
-0.526724,-8.983045,0.957681,0.0,49.848774,24.036413,370.0,NaN,4.14,11.0,0.0,0 / 3,80028,2020-03-19 20:24:43:868
-2.394202,-12.057199,-2.94008,0.0,49.849117,24.037205,397.0,NaN,2.844,26.0,0.0,7 / 7,80529,2020-03-19 20:24:44:369
-0.105345,-4.400542,16.409859,0.0,49.849117,24.037205,397.0,NaN,2.844,26.0,0.0,7 / 7,81029,2020-03-19 20:24:44:869
-1.728614,-12.871228,-2.173935,0.0,49.849117,24.037205,397.0,NaN,2.844,26.0,0.0,7 / 7,81528,2020-03-19 20:24:45:368
-1.987187,-9.940725,-6.363788,0.0,49.849117,24.037205,397.0,NaN,2.844,26.0,0.0,7 / 7,82028,2020-03-19 20:24:45:868
-3.74932,-8.700529,-1.92015,0.0,49.849117,24.037205,397.0,NaN,2.844,26.0,0.0,7 / 7,82528,2020-03-19 20:24:46:368
-3.524265,-2.135628,2.743755,0.0,49.849117,24.037205,397.0,NaN,2.844,26.0,0.0,7 / 7,83028,2020-03-19 20:24:46:868
-5.765238,-6.224924,1.278504,0.0,49.849117,24.037205,397.0,NaN,2.844,26.0,0.0,7 / 7,83528,2020-03-19 20:24:47:368
0.349553,-6.761225,1.225831,0.0,49.849117,24.037205,397.0,NaN,2.844,26.0,0.0,7 / 7,84028,2020-03-19 20:24:47:868
3.519477,-20.642809,-6.856993,0.0,49.849117,24.037205,397.0,NaN,2.844,26.0,0.0,7 / 7,84528,2020-03-19 20:24:48:368
-5.564124,-13.541605,-2.580949,0.0,49.849117,24.037205,397.0,NaN,2.844,26.0,0.0,7 / 7,85028,2020-03-19 20:24:48:868
-2.078167,-7.374141,-5.15711,0.0,49.849117,24.037205,397.0,NaN,2.844,26.0,0.0,7 / 7,85528,2020-03-19 20:24:49:368
1.522712,-9.940725,-0.588974,0.0,49.849117,24.037205,397.0,NaN,2.844,26.0,0.0,7 / 7,86028,2020-03-19 20:24:49:868
-2.322375,-2.063802,2.217031,0.0,49.849117,24.037205,397.0,NaN,2.844,26.0,0.0,7 / 7,86528,2020-03-19 20:24:50:368
-7.546523,-7.479486,-1.37906,0.0,49.849117,24.037205,397.0,NaN,2.844,26.0,0.0,7 / 7,87028,2020-03-19 20:24:50:868
-10.496181,-13.690045,-0.694318,0.0,49.849117,24.037205,397.0,NaN,2.844,26.0,0.0,7 / 7,87528,2020-03-19 20:24:51:368
-7.685387,-6.967127,-0.349553,0.0,49.849117,24.037205,397.0,NaN,2.844,26.0,0.0,7 / 7,88029,2020-03-19 20:24:51:869
-13.594277,-13.062764,3.337517,0.0,49.849117,24.037205,397.0,NaN,2.844,26.0,0.0,7 / 7,88529,2020-03-19 20:24:52:369
6.71813,-15.820885,9.950302,0.0,49.849117,24.037205,397.0,NaN,2.844,26.0,0.0,7 / 7,89028,2020-03-19 20:24:52:868
-0.622492,-11.45865,-0.162806,0.0,49.849117,24.037205,397.0,NaN,2.844,26.0,0.0,7 / 7,89528,2020-03-19 20:24:53:368
-1.996764,-3.720589,-0.354342,0.0,49.849117,24.037205,397.0,NaN,2.844,26.0,0.0,7 / 7,90028,2020-03-19 20:24:53:868
-0.153229,-7.062895,0.320823,0.0,49.849117,24.037205,397.0,NaN,2.844,26.0,0.0,7 / 7,90528,2020-03-19 20:24:54:368
1.106121,-11.894394,-1.034295,0.0,49.849117,24.037205,397.0,NaN,2.844,26.0,0.0,7 / 7,91028,2020-03-19 20:24:54:868
-4.721366,-12.301409,14.489709,0.0,49.849117,24.037205,397.0,NaN,2.844,26.0,0.0,7 / 7,91529,2020-03-19 20:24:55:369
-2.882619,-11.899182,-5.511452,0.0,49.849117,24.037205,397.0,NaN,2.844,26.0,0.0,7 / 7,92029,2020-03-19 20:24:55:869
-4.012682,4.946421,8.317456,0.0,49.849117,24.037205,397.0,NaN,2.844,26.0,0.0,7 / 7,92528,2020-03-19 20:24:56:368
-2.106897,-12.057199,-1.70946,0.0,49.849117,24.037205,397.0,NaN,2.844,26.0,0.0,7 / 7,93028,2020-03-19 20:24:56:868
-3.596091,-4.625597,-0.430956,0.0,49.849117,24.037205,397.0,NaN,2.844,26.0,0.0,7 / 7,93528,2020-03-19 20:24:57:368
-0.59855,-8.992621,0.138864,0.0,49.849117,24.037205,397.0,NaN,2.844,26.0,0.0,7 / 7,94028,2020-03-19 20:24:57:868
-2.432509,-11.654974,-4.122815,0.0,49.849117,24.037205,397.0,NaN,2.844,26.0,0.0,7 / 7,94528,2020-03-19 20:24:58:368
-3.165135,-3.423708,15.543158,0.0,49.849117,24.037205,397.0,NaN,2.844,26.0,0.0,7 / 7,95028,2020-03-19 20:24:58:868
-3.773262,-12.818556,0.253785,0.0,49.849117,24.037205,397.0,NaN,2.844,26.0,0.0,7 / 7,95528,2020-03-19 20:24:59:368
7.091625,-11.314998,28.979418,0.0,49.849117,24.037205,397.0,NaN,2.844,26.0,0.0,7 / 7,96029,2020-03-19 20:24:59:869
-0.684742,-11.947066,1.082179,0.0,49.849117,24.037205,397.0,NaN,2.844,26.0,0.0,7 / 7,96529,2020-03-19 20:25:00:369
-2.202665,-5.152322,-2.557007,0.0,49.849117,24.037205,397.0,NaN,2.844,26.0,0.0,7 / 7,97028,2020-03-19 20:25:00:868
-1.527501,-7.321469,0.488417,0.0,49.849117,24.037205,397.0,NaN,2.844,26.0,0.0,7 / 7,97528,2020-03-19 20:25:01:368
0.440533,-10.251971,-0.268151,0.0,49.849117,24.037205,397.0,NaN,2.844,26.0,0.0,7 / 7,98028,2020-03-19 20:25:01:868
0.742203,-18.229452,-6.272808,0.0,49.849117,24.037205,397.0,NaN,2.844,26.0,0.0,7 / 7,98528,2020-03-19 20:25:02:368
-2.676717,-16.429012,-5.755661,0.0,49.849117,24.037205,397.0,NaN,2.844,26.0,0.0,7 / 7,99028,2020-03-19 20:25:02:868
-6.066907,-5.746084,-2.193089,0.0,49.849117,24.037205,397.0,NaN,2.844,26.0,0.0,7 / 7,99528,2020-03-19 20:25:03:368
-1.115698,-15.854403,-4.041412,0.0,49.849117,24.037205,397.0,NaN,2.844,26.0,0.0,7 / 7,100028,2020-03-19 20:25:03:868
-2.15957,-3.873818,-3.979163,0.0,49.849117,24.037205,397.0,NaN,2.844,26.0,0.0,7 / 7,100528,2020-03-19 20:25:04:368
-3.260903,-8.954314,0.608127,0.0,49.849117,24.037205,397.0,NaN,2.844,26.0,0.0,7 / 7,101028,2020-03-19 20:25:04:868
-3.1795,-1.541866,2.408567,0.0,49.849117,24.037205,397.0,NaN,2.844,26.0,0.0,7 / 7,101528,2020-03-19 20:25:05:368
-5.434838,-6.378153,-2.873042,0.0,49.849117,24.037205,397.0,NaN,2.844,26.0,0.0,7 / 7,102028,2020-03-19 20:25:05:868
-6.775591,-11.051635,-4.276044,0.0,49.849117,24.037205,397.0,NaN,2.844,26.0,0.0,7 / 7,102528,2020-03-19 20:25:06:368
-3.65834,-1.465251,6.770803,0.0,49.849117,24.037205,397.0,NaN,2.844,26.0,0.0,7 / 7,103028,2020-03-19 20:25:06:868
-5.142745,-11.971008,-2.035071,0.0,49.849117,24.037205,397.0,NaN,2.844,26.0,0.0,7 / 7,103528,2020-03-19 20:25:07:368
-16.050728,-12.612655,-22.668303,0.0,49.849117,24.037205,397.0,NaN,2.844,26.0,0.0,7 / 7,104028,2020-03-19 20:25:07:868
-4.577713,-11.731588,-0.497994,0.0,49.849117,24.037205,397.0,NaN,2.844,26.0,0.0,7 / 7,104528,2020-03-19 20:25:08:368
-7.07726,-6.976703,-8.09719,0.0,49.849117,24.037205,397.0,NaN,2.844,26.0,0.0,7 / 7,105029,2020-03-19 20:25:08:869
-3.576937,-7.785944,0.287304,0.0,49.849117,24.037205,397.0,NaN,2.844,26.0,0.0,7 / 7,105529,2020-03-19 20:25:09:369
-2.346318,-4.759673,1.881843,0.0,49.849117,24.037205,397.0,NaN,2.844,26.0,0.0,7 / 7,106029,2020-03-19 20:25:09:869
-2.082955,-8.719683,1.848324,0.0,49.849117,24.037205,397.0,NaN,2.844,26.0,0.0,7 / 7,106529,2020-03-19 20:25:10:369
-12.646173,-12.378023,4.932056,0.0,49.849117,24.037205,397.0,NaN,2.844,26.0,0.0,7 / 7,107028,2020-03-19 20:25:10:868
-7.513005,-12.650962,-6.291962,0.0,49.849117,24.037205,397.0,NaN,2.844,26.0,0.0,7 / 7,107528,2020-03-19 20:25:11:368
-0.244209,-12.550406,-0.584185,0.0,49.849117,24.037205,397.0,NaN,2.844,26.0,0.0,7 / 7,108028,2020-03-19 20:25:11:868
-2.767697,-1.149217,2.619257,0.0,49.849117,24.037205,397.0,NaN,2.844,26.0,0.0,7 / 7,108528,2020-03-19 20:25:12:368
-2.130839,-7.843405,0.397437,0.0,49.849117,24.037205,397.0,NaN,2.844,26.0,0.0,7 / 7,109028,2020-03-19 20:25:12:868
-2.561796,-2.863465,-0.545878,0.0,49.849117,24.037205,397.0,NaN,2.844,26.0,0.0,7 / 7,109528,2020-03-19 20:25:13:368
-2.130839,-8.331821,-0.421379,0.0,49.849117,24.037205,397.0,NaN,2.844,26.0,0.0,7 / 7,110028,2020-03-19 20:25:13:868
-2.149993,-11.123461,-2.557007,0.0,49.849117,24.037205,397.0,NaN,2.844,26.0,0.0,7 / 7,110528,2020-03-19 20:25:14:368
-11.319786,-18.133684,3.112462,0.0,49.849117,24.037205,397.0,NaN,2.844,26.0,0.0,7 / 7,111028,2020-03-19 20:25:14:868
-4.486734,-13.350069,-2.839523,0.0,49.849117,24.037205,397.0,NaN,2.844,26.0,0.0,7 / 7,111528,2020-03-19 20:25:15:368
-13.737929,-13.828909,-19.10573,0.0,49.849117,24.037205,397.0,NaN,2.844,26.0,0.0,7 / 7,112028,2020-03-19 20:25:15:868
-5.497087,-6.818686,-1.522712,0.0,49.849117,24.037205,397.0,NaN,2.844,26.0,0.0,7 / 7,112529,2020-03-19 20:25:16:369
-2.250549,-0.488417,3.495535,0.0,49.849117,24.037205,397.0,NaN,2.844,26.0,0.0,7 / 7,113029,2020-03-19 20:25:16:869
-4.707,-7.733271,0.158017,0.0,49.849117,24.037205,397.0,NaN,2.844,26.0,0.0,7 / 7,113528,2020-03-19 20:25:17:368
-1.182736,-5.856217,1.584962,0.0,49.849117,24.037205,397.0,NaN,2.844,26.0,0.0,7 / 7,114028,2020-03-19 20:25:17:868
-1.106121,-10.127473,-1.010353,0.0,49.849117,24.037205,397.0,NaN,2.844,26.0,0.0,7 / 7,114528,2020-03-19 20:25:18:368
-3.964798,-14.930242,-3.29921,0.0,49.849117,24.037205,397.0,NaN,2.844,26.0,0.0,7 / 7,115028,2020-03-19 20:25:18:868
-1.082179,-5.48751,-4.127603,0.0,49.849117,24.037205,397.0,NaN,2.844,26.0,0.0,7 / 7,115528,2020-03-19 20:25:19:368
-0.962469,-10.19451,-1.039083,0.0,49.849117,24.037205,397.0,NaN,2.844,26.0,0.0,7 / 7,116028,2020-03-19 20:25:19:868
-2.557007,-1.891419,2.035071,0.0,49.849117,24.037205,397.0,NaN,2.844,26.0,0.0,7 / 7,116528,2020-03-19 20:25:20:368
-6.74686,-6.612785,-1.254562,0.0,49.849117,24.037205,397.0,NaN,2.844,26.0,0.0,7 / 7,117028,2020-03-19 20:25:20:868
-4.434061,-1.73819,2.964022,0.0,49.849117,24.037205,397.0,NaN,2.844,26.0,0.0,7 / 7,117528,2020-03-19 20:25:21:368
-6.282385,-5.688623,0.42138,0.0,49.849117,24.037205,397.0,NaN,2.844,26.0,0.0,7 / 7,118028,2020-03-19 20:25:21:868
-9.097966,-8.868123,-2.193089,0.0,49.849117,24.037205,397.0,NaN,2.844,26.0,0.0,7 / 7,118529,2020-03-19 20:25:22:369
-1.517924,-3.845088,-3.706224,0.0,49.849117,24.037205,397.0,NaN,2.844,26.0,0.0,7 / 7,119028,2020-03-19 20:25:22:868
-1.747767,-9.720459,-1.714248,0.0,49.849117,24.037205,397.0,NaN,2.844,26.0,0.0,7 / 7,119528,2020-03-19 20:25:23:368
-2.743755,-2.06859,1.412579,0.0,49.849117,24.037205,397.0,NaN,2.844,26.0,0.0,7 / 7,120028,2020-03-19 20:25:23:868
-4.060566,-7.896077,0.153229,0.0,49.849117,24.037205,397.0,NaN,2.844,26.0,0.0,7 / 7,120528,2020-03-19 20:25:24:368
-7.398083,-12.497733,-2.298433,0.0,49.849117,24.037205,397.0,NaN,2.844,26.0,0.0,7 / 7,121028,2020-03-19 20:25:24:868
-8.978256,5.525818,-8.044517,0.0,49.849117,24.037205,397.0,NaN,2.844,26.0,0.0,7 / 7,121529,2020-03-19 20:25:25:369
-14.211981,-11.779472,0.622492,0.0,49.849117,24.037205,397.0,NaN,2.844,26.0,0.0,7 / 7,122029,2020-03-19 20:25:25:869
2.557007,-17.587805,17.81765,0.0,49.849117,24.037205,397.0,NaN,2.844,26.0,0.0,7 / 7,122529,2020-03-19 20:25:26:369
-3.572149,-12.157756,-0.47884,0.0,49.849117,24.037205,397.0,NaN,2.844,26.0,0.0,7 / 7,123028,2020-03-19 20:25:26:868
-9.337387,-6.95755,-7.848193,0.0,49.849117,24.037205,397.0,NaN,2.844,26.0,0.0,7 / 7,123528,2020-03-19 20:25:27:368
-3.380613,-7.331045,-0.761356,0.0,49.849117,24.037205,397.0,NaN,2.844,26.0,0.0,7 / 7,124028,2020-03-19 20:25:27:868
-0.363919,-11.722012,-1.35033,0.0,49.849117,24.037205,397.0,NaN,2.844,26.0,0.0,7 / 7,124528,2020-03-19 20:25:28:368
-4.783615,-10.998962,11.851298,0.0,49.849117,24.037205,397.0,NaN,2.844,26.0,0.0,7 / 7,125028,2020-03-19 20:25:28:868
-4.989516,-12.344504,-1.632845,0.0,49.849117,24.037205,397.0,NaN,2.844,26.0,0.0,7 / 7,125529,2020-03-19 20:25:29:369
-1.723825,-10.160992,21.222204,0.0,49.849117,24.037205,397.0,NaN,2.844,26.0,0.0,7 / 7,126029,2020-03-19 20:25:29:869
-4.261679,-10.443508,-1.546654,0.0,49.849117,24.037205,397.0,NaN,2.844,26.0,0.0,7 / 7,126529,2020-03-19 20:25:30:369
-2.896984,-2.236184,1.201889,0.0,49.849117,24.037205,397.0,NaN,2.844,26.0,0.0,7 / 7,127028,2020-03-19 20:25:30:868
-1.714248,-7.378929,-1.987187,0.0,49.849117,24.037205,397.0,NaN,2.844,26.0,0.0,7 / 7,127528,2020-03-19 20:25:31:368
-1.331176,-11.348516,-2.322375,0.0,49.849117,24.037205,397.0,NaN,2.844,26.0,0.0,7 / 7,128028,2020-03-19 20:25:31:868
-8.2169,-11.36767,13.067553,0.0,49.849117,24.037205,397.0,NaN,2.844,26.0,0.0,0 / 0,128528,2020-03-19 20:25:32:368
-3.888183,-11.678916,-3.217807,0.0,49.849117,24.037205,397.0,NaN,2.844,26.0,0.0,0 / 0,129029,2020-03-19 20:25:32:869
-13.742718,-16.950949,-17.741035,0.0,49.849117,24.037205,397.0,NaN,2.844,26.0,0.0,0 / 0,129529,2020-03-19 20:25:33:369
-5.444414,-12.425907,1.034295,0.0,49.849117,24.037205,397.0,NaN,2.844,26.0,0.0,0 / 0,130029,2020-03-19 20:25:33:869
-10.079589,-11.779472,-18.162415,0.0,49.849117,24.037205,397.0,NaN,2.844,26.0,0.0,0 / 5,130529,2020-03-19 20:25:34:369
-6.684611,-7.479486,-2.595315,0.0,49.849117,24.037205,397.0,NaN,2.844,26.0,0.0,0 / 5,131029,2020-03-19 20:25:34:869
-5.042188,-3.471592,2.03986,0.0,49.849117,24.037205,397.0,NaN,2.844,26.0,0.0,0 / 9,131529,2020-03-19 20:25:35:369
-7.85777,-5.430049,-0.430956,0.0,49.849117,24.037205,397.0,NaN,2.844,26.0,0.0,0 / 9,132029,2020-03-19 20:25:35:869
-12.081141,-11.176133,-0.766144,0.0,49.849117,24.037205,397.0,NaN,2.844,26.0,0.0,0 / 25,132529,2020-03-19 20:25:36:369
-5.386954,-4.76925,11.84651,0.0,49.849117,24.037205,397.0,NaN,2.844,26.0,0.0,0 / 25,133029,2020-03-19 20:25:36:869
-5.956774,-10.098742,-0.263362,0.0,49.849117,24.037205,397.0,NaN,2.844,26.0,0.0,0 / 28,133528,2020-03-19 20:25:37:368
-1.115698,-10.007763,-10.237606,0.0,49.849117,24.037205,397.0,NaN,2.844,26.0,0.0,0 / 28,134028,2020-03-19 20:25:37:868
-4.338293,-7.493851,0.981623,0.0,49.849117,24.037205,397.0,NaN,2.844,26.0,0.0,13 / 28,134528,2020-03-19 20:25:38:368
-1.733402,-3.758896,1.939303,0.0,49.849117,24.037205,397.0,NaN,2.844,26.0,0.0,13 / 28,135028,2020-03-19 20:25:38:868
0.11971,-11.587936,0.794875,0.0,49.849117,24.037205,397.0,NaN,2.844,26.0,0.0,13 / 28,135528,2020-03-19 20:25:39:368
-10.43872,-9.179369,-3.519476,0.0,49.849117,24.037205,397.0,NaN,2.844,26.0,0.0,13 / 28,136028,2020-03-19 20:25:39:868
-3.29921,-5.717354,-5.171476,0.0,49.849117,24.037205,397.0,NaN,2.844,26.0,0.0,13 / 28,136528,2020-03-19 20:25:40:368
-0.033519,-11.051635,-0.593762,0.0,49.849117,24.037205,397.0,NaN,2.844,26.0,0.0,13 / 28,137028,2020-03-19 20:25:40:868
-3.495534,-2.073379,1.517924,0.0,49.849117,24.037205,397.0,NaN,2.844,26.0,0.0,13 / 28,137528,2020-03-19 20:25:41:368
-8.657434,-5.094861,-1.608903,0.0,49.849117,24.037205,397.0,NaN,2.844,26.0,0.0,13 / 28,138028,2020-03-19 20:25:41:868
-11.161768,-13.508086,-1.690306,0.0,49.849117,24.037205,397.0,NaN,2.844,26.0,0.0,13 / 28,138528,2020-03-19 20:25:42:368
-8.226476,-5.913678,-1.015141,0.0,49.849117,24.037205,397.0,NaN,2.844,26.0,0.0,13 / 28,139028,2020-03-19 20:25:42:868
-13.397953,-11.812991,1.039084,0.0,49.849117,24.037205,397.0,NaN,2.844,26.0,0.0,13 / 28,139528,2020-03-19 20:25:43:368
-16.936583,-27.576416,-14.053964,0.0,49.849117,24.037205,397.0,NaN,2.844,26.0,0.0,13 / 28,140028,2020-03-19 20:25:43:868
-3.902549,-11.482592,0.756568,0.0,49.849117,24.037205,397.0,NaN,2.844,26.0,0.0,13 / 28,140529,2020-03-19 20:25:44:369
-3.782838,-6.315904,-11.549629,0.0,49.849117,24.037205,397.0,NaN,2.844,26.0,0.0,13 / 28,141029,2020-03-19 20:25:44:869
-3.562572,-7.800309,-0.411803,0.0,49.849117,24.037205,397.0,NaN,2.844,26.0,0.0,13 / 28,141528,2020-03-19 20:25:45:368
-0.229843,-9.950302,-0.110133,0.0,49.849117,24.037205,397.0,NaN,2.844,26.0,0.0,13 / 28,142029,2020-03-19 20:25:45:869
-6.885724,-17.54471,-6.962338,0.0,49.849117,24.037205,397.0,NaN,2.844,26.0,0.0,13 / 28,142529,2020-03-19 20:25:46:369
-7.599196,-12.109872,-3.773262,0.0,49.849117,24.037205,397.0,NaN,2.844,26.0,0.0,13 / 28,143029,2020-03-19 20:25:46:869
-6.315904,-12.756307,11.860875,0.0,49.849117,24.037205,397.0,NaN,2.844,26.0,0.0,13 / 28,143529,2020-03-19 20:25:47:369
-3.873818,-12.124237,-2.643199,0.0,49.849117,24.037205,397.0,NaN,2.844,26.0,0.0,13 / 28,144028,2020-03-19 20:25:47:868
-11.7268,-12.947843,-19.129671,0.0,49.849117,24.037205,397.0,NaN,2.844,26.0,0.0,13 / 28,144528,2020-03-19 20:25:48:368
-3.653552,-7.704541,1.192313,0.0,49.849117,24.037205,397.0,NaN,2.844,26.0,0.0,13 / 28,145028,2020-03-19 20:25:48:868
-3.289633,-4.568136,2.533065,0.0,49.849117,24.037205,397.0,NaN,2.844,26.0,0.0,13 / 28,145529,2020-03-19 20:25:49:369
-2.983175,-8.058882,1.072602,0.0,49.849117,24.037205,397.0,NaN,2.844,26.0,0.0,13 / 28,146028,2020-03-19 20:25:49:868
-10.687716,-9.323022,-1.096544,0.0,49.849117,24.037205,397.0,NaN,2.844,26.0,0.0,13 / 28,146528,2020-03-19 20:25:50:368
-6.483498,-6.277597,-4.410119,0.0,49.849117,24.037205,397.0,NaN,2.844,26.0,0.0,13 / 28,147028,2020-03-19 20:25:50:868
-2.580949,-11.611878,-1.23062,0.0,49.849117,24.037205,397.0,NaN,2.844,26.0,0.0,13 / 28,147528,2020-03-19 20:25:51:368
-2.432509,-5.45878,-5.281609,0.0,49.849117,24.037205,397.0,NaN,2.844,26.0,0.0,13 / 28,148028,2020-03-19 20:25:51:868
-1.149217,-12.210428,-3.332729,0.0,49.849117,24.037205,397.0,NaN,2.844,26.0,0.0,13 / 28,148529,2020-03-19 20:25:52:369
-2.959233,-0.790087,2.772486,0.0,49.849117,24.037205,397.0,NaN,2.844,26.0,0.0,13 / 28,149029,2020-03-19 20:25:52:869
-2.580949,-9.337387,-1.187524,0.0,49.849117,24.037205,397.0,NaN,2.844,26.0,0.0,13 / 28,149529,2020-03-19 20:25:53:369
-8.748413,-11.975797,-2.72939,0.0,49.849117,24.037205,397.0,NaN,2.844,26.0,0.0,13 / 28,150029,2020-03-19 20:25:53:869
0.3304,7.594408,17.33402,0.0,49.849117,24.037205,397.0,NaN,2.844,26.0,0.0,13 / 28,150528,2020-03-19 20:25:54:368
-5.386954,-10.984597,1.053449,0.0,49.849117,24.037205,397.0,NaN,2.844,26.0,0.0,13 / 28,151028,2020-03-19 20:25:54:868
-4.788403,-6.517017,-5.674258,0.0,49.849117,24.037205,397.0,NaN,2.844,26.0,0.0,13 / 28,151528,2020-03-19 20:25:55:368
-2.355894,-11.793838,-0.521936,0.0,49.849117,24.037205,397.0,NaN,2.844,26.0,0.0,13 / 28,152028,2020-03-19 20:25:55:868
-2.116474,-2.035071,1.292869,0.0,49.849117,24.037205,397.0,NaN,2.844,26.0,0.0,13 / 28,152529,2020-03-19 20:25:56:369
-0.957681,-9.916783,-0.71826,0.0,49.849117,24.037205,397.0,NaN,2.844,26.0,0.0,13 / 28,153029,2020-03-19 20:25:56:869
-3.706224,-11.463438,-2.978387,0.0,49.849117,24.037205,397.0,NaN,2.844,26.0,0.0,13 / 28,153529,2020-03-19 20:25:57:369
-7.939172,7.795521,-4.927267,0.0,49.849117,24.037205,397.0,NaN,2.844,26.0,0.0,13 / 28,154029,2020-03-19 20:25:57:869
-4.841076,-13.67568,-4.936844,0.0,49.849117,24.037205,397.0,NaN,2.844,26.0,0.0,13 / 28,154528,2020-03-19 20:25:58:368
-8.532935,-8.188169,-7.187393,0.0,49.849117,24.037205,397.0,NaN,2.844,26.0,0.0,13 / 28,155028,2020-03-19 20:25:58:868
-5.204994,-7.445967,-1.814805,0.0,49.849117,24.037205,397.0,NaN,2.844,26.0,0.0,13 / 28,155528,2020-03-19 20:25:59:368
-11.003751,-11.233594,-18.871098,0.0,49.849117,24.037205,397.0,NaN,2.844,26.0,0.0,13 / 28,156028,2020-03-19 20:25:59:868
-3.548207,-7.948749,0.938527,0.0,49.849117,24.037205,397.0,NaN,2.844,26.0,0.0,13 / 28,156528,2020-03-19 20:26:00:368
-0.636858,-10.189722,-0.282516,0.0,49.849117,24.037205,397.0,NaN,2.844,26.0,0.0,13 / 28,157028,2020-03-19 20:26:00:868
-7.10599,-12.018892,12.943054,0.0,49.849117,24.037205,397.0,NaN,2.844,26.0,0.0,13 / 28,157529,2020-03-19 20:26:01:369
-3.849876,-12.334928,-2.528277,0.0,49.849117,24.037205,397.0,NaN,2.844,26.0,0.0,13 / 28,158029,2020-03-19 20:26:01:869
-11.401189,-14.504074,-18.962078,0.0,49.849117,24.037205,397.0,NaN,2.844,26.0,0.0,13 / 28,158529,2020-03-19 20:26:02:369
-2.695871,-8.044517,1.608904,0.0,49.849117,24.037205,397.0,NaN,2.844,26.0,0.0,13 / 28,159029,2020-03-19 20:26:02:869
-1.177947,-5.78918,1.690306,0.0,49.849117,24.037205,397.0,NaN,2.844,26.0,0.0,13 / 28,159529,2020-03-19 20:26:03:369
-1.029507,-8.068459,-0.148441,0.0,49.849117,24.037205,397.0,NaN,2.844,26.0,0.0,13 / 28,160029,2020-03-19 20:26:03:869
-1.742979,-11.956643,-0.881066,0.0,49.849117,24.037205,397.0,NaN,2.844,26.0,0.0,13 / 28,160529,2020-03-19 20:26:04:369
-11.568783,-19.49359,-5.770026,0.0,49.849117,24.037205,397.0,NaN,2.844,26.0,0.0,13 / 28,161029,2020-03-19 20:26:04:869
-4.070143,-13.503298,-3.32794,0.0,49.849117,24.037205,397.0,NaN,2.844,26.0,0.0,13 / 28,161529,2020-03-19 20:26:05:369
-5.827487,-8.585608,-7.915231,0.0,49.849117,24.037205,397.0,NaN,2.844,26.0,0.0,13 / 28,162029,2020-03-19 20:26:05:869
-4.654328,-9.528923,-1.915361,0.0,49.849117,24.037205,397.0,NaN,2.844,26.0,0.0,13 / 28,162529,2020-03-19 20:26:06:369
-3.797204,-2.092532,2.442086,0.0,49.849117,24.037205,397.0,NaN,2.844,26.0,0.0,13 / 28,163029,2020-03-19 20:26:06:869
-7.862558,-4.860229,-2.624045,0.0,49.849117,24.037205,397.0,NaN,2.844,26.0,0.0,13 / 28,163529,2020-03-19 20:26:07:369
-13.819332,-9.883265,-1.015141,0.0,49.849117,24.037205,397.0,NaN,2.844,26.0,0.0,13 / 28,164029,2020-03-19 20:26:07:869
-5.190629,-6.110002,1.805228,0.0,49.849117,24.037205,397.0,NaN,2.844,26.0,0.0,13 / 28,164528,2020-03-19 20:26:08:368
-13.402741,-12.162544,6.607997,0.0,49.849117,24.037205,397.0,NaN,2.844,26.0,0.0,13 / 28,165028,2020-03-19 20:26:08:868
-16.927006,-19.694704,-15.682021,0.0,49.849117,24.037205,397.0,NaN,2.844,26.0,0.0,13 / 28,165529,2020-03-19 20:26:09:369
-2.456451,-11.391612,-0.890643,0.0,49.849117,24.037205,397.0,NaN,2.844,26.0,0.0,13 / 28,166029,2020-03-19 20:26:09:869
-3.107674,-2.111686,2.422932,0.0,49.849117,24.037205,397.0,NaN,2.844,26.0,0.0,13 / 28,166529,2020-03-19 20:26:10:369
-1.934515,-9.11712,-0.6608,0.0,49.849117,24.037205,397.0,NaN,2.844,26.0,0.0,13 / 28,167029,2020-03-19 20:26:10:869
-4.726154,-11.812991,-2.863465,0.0,49.849117,24.037205,397.0,NaN,2.844,26.0,0.0,13 / 28,167529,2020-03-19 20:26:11:369
-2.791639,9.409213,2.911349,0.0,49.849117,24.037205,397.0,NaN,2.844,26.0,0.0,13 / 28,168029,2020-03-19 20:26:11:869
-12.469003,-9.983821,0.244209,0.0,49.849117,24.037205,397.0,NaN,2.844,26.0,0.0,13 / 28,168528,2020-03-19 20:26:12:368
-18.468872,-21.179108,-14.288596,0.0,49.849117,24.037205,397.0,NaN,2.844,26.0,0.0,13 / 28,169028,2020-03-19 20:26:12:868
-5.765238,-10.290278,-1.244985,0.0,49.849117,24.037205,397.0,NaN,2.844,26.0,0.0,13 / 28,169528,2020-03-19 20:26:13:368
-2.27928,-1.8579,1.029507,0.0,49.849117,24.037205,397.0,NaN,2.844,26.0,0.0,13 / 28,170028,2020-03-19 20:26:13:868
-1.958457,-7.426813,-1.053449,0.0,49.849117,24.037205,397.0,NaN,2.844,26.0,0.0,13 / 28,170528,2020-03-19 20:26:14:368
-5.152322,-11.702858,-3.050213,0.0,49.849117,24.037205,397.0,NaN,2.844,26.0,0.0,13 / 28,171028,2020-03-19 20:26:14:868
-3.758896,-0.148441,2.011129,0.0,49.849117,24.037205,397.0,NaN,2.844,26.0,0.0,13 / 28,171528,2020-03-19 20:26:15:368
-6.871359,-11.765107,-2.413355,0.0,49.849117,24.037205,397.0,NaN,2.844,26.0,0.0,13 / 28,172028,2020-03-19 20:26:15:868
-2.590526,9.097966,11.99495,0.0,49.849117,24.037205,397.0,NaN,2.844,26.0,0.0,13 / 28,172528,2020-03-19 20:26:16:368
-6.110002,-9.844957,-0.272939,0.0,49.849117,24.037205,397.0,NaN,2.844,26.0,0.0,13 / 28,173028,2020-03-19 20:26:16:868
-3.572149,-7.714118,-11.118672,0.0,49.849117,24.037205,397.0,NaN,2.844,26.0,0.0,13 / 28,173528,2020-03-19 20:26:17:368
-3.280056,-8.307879,0.105345,0.0,49.849117,24.037205,397.0,NaN,2.844,26.0,0.0,13 / 28,174028,2020-03-19 20:26:17:868
0.474052,-10.788273,-0.421379,0.0,49.849117,24.037205,397.0,NaN,2.844,26.0,0.0,13 / 28,174528,2020-03-19 20:26:18:368
-8.748413,-21.32276,-8.623915,0.0,49.849117,24.037205,397.0,NaN,2.844,26.0,0.0,13 / 28,175028,2020-03-19 20:26:18:868
-3.375824,-15.289372,-4.141969,0.0,49.849117,24.037205,397.0,NaN,2.844,26.0,0.0,13 / 28,175528,2020-03-19 20:26:19:368
-3.404555,-8.825027,-6.924031,0.0,49.849117,24.037205,397.0,NaN,2.844,26.0,0.0,13 / 28,176029,2020-03-19 20:26:19:869
-4.477157,-12.138602,-2.183512,0.0,49.849117,24.037205,397.0,NaN,2.844,26.0,0.0,13 / 28,176529,2020-03-19 20:26:20:369
-11.81778,-11.209652,-16.208746,0.0,49.849117,24.037205,397.0,NaN,2.844,26.0,0.0,13 / 28,177028,2020-03-19 20:26:20:868
-4.620809,-7.015011,-1.13964,0.0,49.849117,24.037205,397.0,NaN,2.844,26.0,0.0,13 / 28,177528,2020-03-19 20:26:21:368
-3.399766,-1.786074,2.686294,0.0,49.849117,24.037205,397.0,NaN,2.844,26.0,0.0,13 / 28,178028,2020-03-19 20:26:21:868
-7.259219,-6.435614,0.110133,0.0,49.849117,24.037205,397.0,NaN,2.844,26.0,0.0,13 / 28,178528,2020-03-19 20:26:22:368
-14.001291,-11.128249,0.579397,0.0,49.849117,24.037205,397.0,NaN,2.844,26.0,0.0,13 / 28,179028,2020-03-19 20:26:22:868
-13.211205,-15.217546,-14.322115,0.0,49.849117,24.037205,397.0,NaN,2.844,26.0,0.0,13 / 28,179529,2020-03-19 20:26:23:369
-3.045424,-11.018116,3.040636,0.0,49.849117,24.037205,397.0,NaN,2.844,26.0,0.0,13 / 28,180028,2020-03-19 20:26:23:868
-2.403778,-2.15957,-0.416591,0.0,49.849117,24.037205,397.0,NaN,2.844,26.0,0.0,13 / 28,180528,2020-03-19 20:26:24:368
-1.996764,-8.738836,0.220267,0.0,49.849117,24.037205,397.0,NaN,2.844,26.0,0.0,13 / 28,181028,2020-03-19 20:26:24:868
-2.992752,-9.514558,-1.058237,0.0,49.849117,24.037205,397.0,NaN,2.844,26.0,0.0,13 / 28,181528,2020-03-19 20:26:25:368
-2.796427,-7.632715,-0.593762,0.0,49.849117,24.037205,397.0,NaN,2.844,26.0,0.0,13 / 28,182028,2020-03-19 20:26:25:868
-4.893748,-11.860875,-4.204218,0.0,49.849117,24.037205,397.0,NaN,2.844,26.0,0.0,13 / 28,182528,2020-03-19 20:26:26:368
-8.403648,2.365471,-2.27928,0.0,49.849117,24.037205,397.0,NaN,2.844,26.0,0.0,13 / 28,183028,2020-03-19 20:26:26:868
-5.027823,-12.473791,-2.121263,0.0,49.849117,24.037205,397.0,NaN,2.844,26.0,0.0,13 / 28,183528,2020-03-19 20:26:27:368
-11.860875,-11.60709,-17.84159,0.0,49.849117,24.037205,397.0,NaN,2.844,26.0,0.0,13 / 28,184028,2020-03-19 20:26:27:868
-3.634398,-7.781155,0.646435,0.0,49.849117,24.037205,397.0,NaN,2.844,26.0,0.0,13 / 28,184528,2020-03-19 20:26:28:368
-1.340753,-6.200982,1.393425,0.0,49.849117,24.037205,397.0,NaN,2.844,26.0,0.0,13 / 28,185028,2020-03-19 20:26:28:868
-2.106897,-9.921572,0.296881,0.0,49.849117,24.037205,397.0,NaN,2.844,26.0,0.0,13 / 28,185528,2020-03-19 20:26:29:368
0.339977,-9.188946,0.56982,0.0,49.849117,24.037205,397.0,NaN,2.844,26.0,0.0,13 / 28,186028,2020-03-19 20:26:29:868
-4.146757,-16.74026,-7.187393,0.0,49.849117,24.037205,397.0,NaN,2.844,26.0,0.0,13 / 28,186528,2020-03-19 20:26:30:368
-5.497087,-14.197616,-4.266467,0.0,49.849117,24.037205,397.0,NaN,2.844,26.0,0.0,13 / 28,187029,2020-03-19 20:26:30:869
-0.933739,-4.932055,-3.62961,0.0,49.849117,24.037205,397.0,NaN,2.844,26.0,0.0,13 / 28,187528,2020-03-19 20:26:31:368
-0.421379,-12.349293,-4.386177,0.0,49.849117,24.037205,397.0,NaN,2.844,26.0,0.0,13 / 28,188028,2020-03-19 20:26:31:868
-2.212242,-1.82917,1.249773,0.0,49.849117,24.037205,397.0,NaN,2.844,26.0,0.0,13 / 28,188528,2020-03-19 20:26:32:368
-3.936067,-6.689399,0.177171,0.0,49.849117,24.037205,397.0,NaN,2.844,26.0,0.0,13 / 28,189029,2020-03-19 20:26:32:869
-4.989516,-11.118672,-4.46758,0.0,49.849117,24.037205,397.0,NaN,2.844,26.0,0.0,13 / 28,189529,2020-03-19 20:26:33:369
-10.462662,-4.31914,-1.13964,0.0,49.849117,24.037205,397.0,NaN,2.844,26.0,0.0,13 / 28,190028,2020-03-19 20:26:33:868
-14.628572,-10.577583,3.572149,0.0,49.849117,24.037205,397.0,NaN,2.844,26.0,0.0,13 / 28,190528,2020-03-19 20:26:34:368
-16.730682,-17.51598,-9.255983,0.0,49.849117,24.037205,397.0,NaN,2.844,26.0,0.0,13 / 28,191028,2020-03-19 20:26:34:868
-2.011129,-12.856863,0.052672,0.0,49.849117,24.037205,397.0,NaN,2.844,26.0,0.0,13 / 28,191528,2020-03-19 20:26:35:368
-2.671929,-2.336741,1.872266,0.0,49.849117,24.037205,397.0,NaN,2.844,26.0,0.0,13 / 28,192028,2020-03-19 20:26:35:868
-3.284845,-8.331821,-0.177171,0.0,49.849117,24.037205,397.0,NaN,2.844,26.0,0.0,13 / 28,192528,2020-03-19 20:26:36:368
-5.822698,-11.63582,-4.759673,0.0,49.849117,24.037205,397.0,NaN,2.844,26.0,0.0,13 / 28,193028,2020-03-19 20:26:36:868
-7.910442,2.724602,0.790087,0.0,49.849117,24.037205,397.0,NaN,2.844,26.0,0.0,13 / 28,193528,2020-03-19 20:26:37:368
-3.725378,-13.503298,-3.380613,0.0,49.849117,24.037205,397.0,NaN,2.844,26.0,0.0,13 / 28,194028,2020-03-19 20:26:37:868
-5.650316,-10.58716,13.565547,0.0,49.849117,24.037205,397.0,NaN,2.844,26.0,0.0,13 / 28,194528,2020-03-19 20:26:38:368
-4.261679,-10.912771,0.531513,0.0,49.849117,24.037205,397.0,NaN,2.844,26.0,0.0,13 / 28,195028,2020-03-19 20:26:38:868
-6.856993,-8.647857,-10.927136,0.0,49.849117,24.037205,397.0,NaN,2.844,26.0,0.0,13 / 28,195528,2020-03-19 20:26:39:368
-4.477157,-7.062895,0.100556,0.0,49.849117,24.037205,397.0,NaN,2.844,26.0,0.0,13 / 28,196029,2020-03-19 20:26:39:869
-2.408567,-4.434061,2.341529,0.0,49.849117,24.037205,397.0,NaN,2.844,26.0,0.0,0 / 0,196528,2020-03-19 20:26:40:368
-4.716577,-6.813898,2.528277,0.0,49.849117,24.037205,397.0,NaN,2.844,26.0,0.0,0 / 1,197029,2020-03-19 20:26:40:869
-13.962984,-12.196063,5.693412,0.0,49.849117,24.037205,397.0,NaN,2.844,26.0,0.0,0 / 1,197529,2020-03-19 20:26:41:369
-13.31655,-13.79539,-9.390059,0.0,49.848923,24.038038,389.0,NaN,2.808,27.0,0.0,7 / 7,198029,2020-03-19 20:26:41:869
-0.756568,-13.594277,-2.121263,0.0,49.848923,24.038038,389.0,NaN,2.808,27.0,0.0,7 / 7,198528,2020-03-19 20:26:42:368
-2.37026,-1.877054,2.624045,0.0,49.848923,24.038038,389.0,NaN,2.808,27.0,0.0,7 / 7,199028,2020-03-19 20:26:42:868
-6.248866,-5.190629,-0.837971,0.0,49.848923,24.038038,389.0,NaN,2.808,27.0,0.0,7 / 7,199528,2020-03-19 20:26:43:368
-10.778696,-11.60709,-0.881066,0.0,49.848923,24.038038,389.0,NaN,2.808,27.0,0.0,7 / 7,200029,2020-03-19 20:26:43:869
6.502652,1.857901,18.171991,0.0,49.848923,24.038038,389.0,NaN,2.808,27.0,0.0,7 / 7,200529,2020-03-19 20:26:44:369
-12.890382,-11.247959,7.235278,0.0,49.848923,24.038038,389.0,NaN,2.808,27.0,0.0,7 / 7,201028,2020-03-19 20:26:44:868
-9.174581,-16.936583,1.982399,0.0,49.848923,24.038038,389.0,NaN,2.808,27.0,0.0,7 / 7,201528,2020-03-19 20:26:45:368
-3.677494,-12.650962,-1.479617,0.0,49.848923,24.038038,389.0,NaN,2.808,27.0,0.0,7 / 7,202028,2020-03-19 20:26:45:868
-5.114014,-9.059659,-9.26556,0.0,49.848923,24.038038,389.0,NaN,2.808,27.0,0.0,7 / 7,202528,2020-03-19 20:26:46:368
-4.232949,-8.068459,-2.06859,0.0,49.848923,24.038038,389.0,NaN,2.808,27.0,0.0,7 / 7,203028,2020-03-19 20:26:46:868
-2.317587,-3.495534,1.666364,0.0,49.848923,24.038038,389.0,NaN,2.808,27.0,0.0,7 / 7,203528,2020-03-19 20:26:47:368
-1.80044,-9.485827,0.42138,0.0,49.848923,24.038038,389.0,NaN,2.808,27.0,0.0,7 / 7,204028,2020-03-19 20:26:47:868
-10.0748,-7.034164,-1.690306,0.0,49.848923,24.038038,389.0,NaN,2.808,27.0,0.0,7 / 7,204528,2020-03-19 20:26:48:368
-3.438074,-14.69561,-1.877054,0.0,49.848923,24.038038,389.0,NaN,2.808,27.0,0.0,7 / 7,205028,2020-03-19 20:26:48:868
-9.385271,-10.323798,0.9912,0.0,49.848923,24.038038,389.0,NaN,2.808,27.0,0.0,7 / 7,205529,2020-03-19 20:26:49:369
-9.979033,-9.485827,-6.952761,0.0,49.848923,24.038038,389.0,NaN,2.808,27.0,0.0,7 / 7,206029,2020-03-19 20:26:49:869
-1.254562,-12.521675,-1.781286,0.0,49.848923,24.038038,389.0,NaN,2.808,27.0,0.0,7 / 7,206529,2020-03-19 20:26:50:369
-2.868254,-1.35033,2.60968,0.0,49.848923,24.038038,389.0,NaN,2.808,27.0,0.0,7 / 7,207028,2020-03-19 20:26:50:868
-3.366248,-7.972691,-0.057461,0.0,49.848923,24.038038,389.0,NaN,2.808,27.0,0.0,7 / 7,207528,2020-03-19 20:26:51:368
-4.390966,-10.773908,-3.361459,0.0,49.848923,24.038038,389.0,NaN,2.808,27.0,0.0,7 / 7,208028,2020-03-19 20:26:51:868
2.135628,10.242394,23.290794,0.0,49.848923,24.038038,389.0,NaN,2.808,27.0,0.0,7 / 7,208528,2020-03-19 20:26:52:368
-4.031835,-10.888829,-0.421379,0.0,49.848923,24.038038,389.0,NaN,2.808,27.0,0.0,7 / 7,209028,2020-03-19 20:26:52:868
-2.389413,-1.991976,1.364695,0.0,49.848923,24.038038,389.0,NaN,2.808,27.0,0.0,7 / 7,209529,2020-03-19 20:26:53:369
-2.94008,-9.050082,-2.973598,0.0,49.848923,24.038038,389.0,NaN,2.808,27.0,0.0,7 / 7,210029,2020-03-19 20:26:53:869
-2.485181,-2.250549,2.207454,0.0,49.848923,24.038038,389.0,NaN,2.808,27.0,0.0,7 / 7,210528,2020-03-19 20:26:54:368
-7.187393,-4.525041,-2.073379,0.0,49.848923,24.038038,389.0,NaN,2.808,27.0,0.0,7 / 7,211028,2020-03-19 20:26:54:868
-11.089942,-11.765107,-1.867477,0.0,49.848923,24.038038,389.0,NaN,2.808,27.0,0.0,7 / 7,211528,2020-03-19 20:26:55:368
-1.666364,2.523489,13.077129,0.0,49.848923,24.038038,389.0,NaN,2.808,27.0,0.0,7 / 7,212028,2020-03-19 20:26:55:868
-5.420472,-11.15698,-1.192312,0.0,49.848923,24.038038,389.0,NaN,2.808,27.0,0.0,7 / 7,212528,2020-03-19 20:26:56:368
-10.156203,-9.02614,-15.284584,0.0,49.848923,24.038038,389.0,NaN,2.808,27.0,0.0,7 / 7,213028,2020-03-19 20:26:56:868
-5.123591,-7.187393,-0.440533,0.0,49.848923,24.038038,389.0,NaN,2.808,27.0,0.0,7 / 7,213528,2020-03-19 20:26:57:368
-3.308787,-2.217031,0.933739,0.0,49.848923,24.038038,389.0,NaN,2.808,27.0,0.0,7 / 7,214029,2020-03-19 20:26:57:869
-1.326388,-8.394072,-0.857124,0.0,49.848923,24.038038,389.0,NaN,2.808,27.0,0.0,7 / 7,214528,2020-03-19 20:26:58:368
-0.483629,-10.91756,0.373495,0.0,49.848923,24.038038,389.0,NaN,2.808,27.0,0.0,7 / 7,215029,2020-03-19 20:26:58:869
-4.462792,-4.831499,21.361067,0.0,49.848923,24.038038,389.0,NaN,2.808,27.0,0.0,7 / 7,215528,2020-03-19 20:26:59:368
-4.58729,-13.31655,-2.96881,0.0,49.848923,24.038038,389.0,NaN,2.808,27.0,0.0,7 / 7,216029,2020-03-19 20:26:59:869
-10.970232,-14.872781,-21.902157,0.0,49.848923,24.038038,389.0,NaN,2.808,27.0,0.0,7 / 7,216528,2020-03-19 20:27:00:368
-5.497087,-9.308656,-2.355894,0.0,49.848923,24.038038,389.0,NaN,2.808,27.0,0.0,7 / 7,217028,2020-03-19 20:27:00:868
-1.94888,-2.1883,0.574608,0.0,49.848923,24.038038,389.0,NaN,2.808,27.0,0.0,7 / 7,217528,2020-03-19 20:27:01:368
-3.912125,-8.092401,0.574608,0.0,49.848923,24.038038,389.0,NaN,2.808,27.0,0.0,7 / 7,218028,2020-03-19 20:27:01:868
-1.096544,-6.756437,0.699107,0.0,49.848923,24.038038,389.0,NaN,2.808,27.0,0.0,7 / 7,218529,2020-03-19 20:27:02:369
-2.422932,-13.857639,-3.490746,0.0,49.848923,24.038038,389.0,NaN,2.808,27.0,0.0,7 / 7,219028,2020-03-19 20:27:02:868
-10.654198,-8.66701,-7.206547,0.0,49.848923,24.038038,389.0,NaN,2.808,27.0,0.0,7 / 7,219528,2020-03-19 20:27:03:368
-2.87783,-5.410896,-4.730942,0.0,49.848923,24.038038,389.0,NaN,2.808,27.0,0.0,7 / 7,220028,2020-03-19 20:27:03:868
-5.884948,-7.422025,-2.245761,0.0,49.848923,24.038038,389.0,NaN,2.808,27.0,0.0,7 / 7,220528,2020-03-19 20:27:04:368
-2.442086,-1.599327,2.092532,0.0,49.848923,24.038038,389.0,NaN,2.808,27.0,0.0,7 / 7,221028,2020-03-19 20:27:04:868
-9.02614,-5.544971,-1.896208,0.0,49.848923,24.038038,389.0,NaN,2.808,27.0,0.0,7 / 7,221528,2020-03-19 20:27:05:368
-3.586514,-1.513135,2.30801,0.0,49.848923,24.038038,389.0,NaN,2.808,27.0,0.0,7 / 7,222028,2020-03-19 20:27:05:868
-7.594407,-5.66947,0.019154,0.0,49.848923,24.038038,389.0,NaN,2.808,27.0,0.0,7 / 7,222528,2020-03-19 20:27:06:368
-14.872781,-10.85531,5.765238,0.0,49.848923,24.038038,389.0,NaN,2.808,27.0,0.0,7 / 7,223029,2020-03-19 20:27:06:869
-11.286267,-9.706094,-10.477027,0.0,49.848923,24.038038,389.0,NaN,2.808,27.0,0.0,7 / 7,223528,2020-03-19 20:27:07:368
-2.925714,-13.062764,-2.99754,0.0,49.848923,24.038038,389.0,NaN,2.808,27.0,0.0,7 / 7,224028,2020-03-19 20:27:07:868
-3.514688,-1.900996,2.293645,0.0,49.848923,24.038038,389.0,NaN,2.808,27.0,0.0,7 / 7,224529,2020-03-19 20:27:08:369
-1.570596,-9.227253,-0.253785,0.0,49.848923,24.038038,389.0,NaN,2.808,27.0,0.0,7 / 7,225028,2020-03-19 20:27:08:868
-1.666364,-10.563218,-0.895431,0.0,49.848923,24.038038,389.0,NaN,2.808,27.0,0.0,7 / 7,225528,2020-03-19 20:27:09:368
-3.428497,-8.025364,0.416591,0.0,49.848923,24.038038,389.0,NaN,2.808,27.0,0.0,7 / 7,226028,2020-03-19 20:27:09:868
-10.079589,-12.531252,-1.340753,0.0,49.848923,24.038038,389.0,NaN,2.808,27.0,0.0,7 / 7,226528,2020-03-19 20:27:10:368
-13.359646,-21.993137,-4.735731,0.0,49.848923,24.038038,389.0,NaN,2.808,27.0,0.0,7 / 7,227028,2020-03-19 20:27:10:868
-0.861913,-14.097059,-0.09098,0.0,49.848923,24.038038,389.0,NaN,2.808,27.0,0.0,7 / 7,227528,2020-03-19 20:27:11:368
-3.620033,-2.102109,1.781286,0.0,49.848923,24.038038,389.0,NaN,2.808,27.0,0.0,7 / 7,228028,2020-03-19 20:27:11:868
-2.825158,-7.173028,-0.244209,0.0,49.848923,24.038038,389.0,NaN,2.808,27.0,0.0,7 / 7,228528,2020-03-19 20:27:12:368
-3.423708,-11.089942,-1.249773,0.0,49.848923,24.038038,389.0,NaN,2.808,27.0,0.0,7 / 7,229028,2020-03-19 20:27:12:868
-10.591949,-21.590912,-2.710236,0.0,49.848923,24.038038,389.0,NaN,2.808,27.0,0.0,7 / 7,229528,2020-03-19 20:27:13:368
-3.495534,-12.607866,-1.173159,0.0,49.848923,24.038038,389.0,NaN,2.808,27.0,0.0,7 / 7,230028,2020-03-19 20:27:13:868
-10.591949,-12.957419,-15.485697,0.0,49.848923,24.038038,389.0,NaN,2.808,27.0,0.0,7 / 7,230528,2020-03-19 20:27:14:368
-5.12838,-11.645397,-0.143652,0.0,49.848923,24.038038,389.0,NaN,2.808,27.0,0.0,7 / 7,231028,2020-03-19 20:27:14:868
-3.744531,-6.282385,-6.301539,0.0,49.848923,24.038038,389.0,NaN,2.808,27.0,0.0,7 / 7,231528,2020-03-19 20:27:15:368
-0.756568,-9.428367,0.627281,0.0,49.848923,24.038038,389.0,NaN,2.808,27.0,0.0,7 / 7,232028,2020-03-19 20:27:15:868
0.363919,-11.09473,-0.972046,0.0,49.848923,24.038038,389.0,NaN,2.808,27.0,0.0,7 / 7,232528,2020-03-19 20:27:16:368
-5.60722,1.848324,6.445191,0.0,49.848923,24.038038,389.0,NaN,2.808,27.0,0.0,7 / 7,233028,2020-03-19 20:27:16:868
-5.295974,-16.079458,-2.015918,0.0,49.848923,24.038038,389.0,NaN,2.808,27.0,0.0,7 / 7,233528,2020-03-19 20:27:17:368
-10.668563,-11.932701,-17.128119,0.0,49.848923,24.038038,389.0,NaN,2.808,27.0,0.0,7 / 7,234028,2020-03-19 20:27:17:868
-4.237737,-7.216124,-2.035071,0.0,49.848923,24.038038,389.0,NaN,2.808,27.0,0.0,7 / 7,234528,2020-03-19 20:27:18:368
-4.156334,-3.481169,0.9912,0.0,49.848923,24.038038,389.0,NaN,2.808,27.0,0.0,7 / 7,235028,2020-03-19 20:27:18:868
-3.773262,-7.762002,-0.411803,0.0,49.848923,24.038038,389.0,NaN,2.808,27.0,0.0,7 / 7,235528,2020-03-19 20:27:19:368
0.292093,-10.831368,-0.23942,0.0,49.848923,24.038038,389.0,NaN,2.808,27.0,0.0,7 / 7,236028,2020-03-19 20:27:19:868
-7.249643,-14.542381,0.349553,0.0,49.848923,24.038038,389.0,NaN,2.808,27.0,0.0,7 / 7,236528,2020-03-19 20:27:20:368
-3.639186,-12.526464,-1.345541,0.0,49.848923,24.038038,389.0,NaN,2.808,27.0,0.0,7 / 7,237028,2020-03-19 20:27:20:868
-2.217031,-5.999869,-6.775591,0.0,49.848923,24.038038,389.0,NaN,2.808,27.0,0.0,7 / 7,237528,2020-03-19 20:27:21:368
-2.063802,-7.120356,-1.556231,0.0,49.848923,24.038038,389.0,NaN,2.808,27.0,0.0,7 / 7,238028,2020-03-19 20:27:21:868
-6.660669,-12.41633,-4.850652,0.0,49.848923,24.038038,389.0,NaN,2.808,27.0,0.0,7 / 7,238528,2020-03-19 20:27:22:368
-6.799533,3.1795,1.695095,0.0,49.848923,24.038038,389.0,NaN,2.808,27.0,0.0,7 / 7,239028,2020-03-19 20:27:22:868
-13.666103,-10.491392,0.440533,0.0,49.848923,24.038038,389.0,NaN,2.808,27.0,0.0,7 / 7,239528,2020-03-19 20:27:23:368
-9.495404,-4.984728,10.721235,0.0,49.848923,24.038038,389.0,NaN,2.808,27.0,0.0,7 / 7,240028,2020-03-19 20:27:23:868
-5.549759,-11.501745,1.216255,0.0,49.848923,24.038038,389.0,NaN,2.808,27.0,0.0,7 / 7,240528,2020-03-19 20:27:24:368
-3.725378,-5.099649,-4.812345,0.0,49.848923,24.038038,389.0,NaN,2.808,27.0,0.0,7 / 7,241028,2020-03-19 20:27:24:868
-3.763685,-7.517793,0.814029,0.0,49.848923,24.038038,389.0,NaN,2.808,27.0,0.0,7 / 7,241528,2020-03-19 20:27:25:368
-0.129287,-7.125144,0.790087,0.0,49.848923,24.038038,389.0,NaN,2.808,27.0,0.0,7 / 7,242028,2020-03-19 20:27:25:868
0.344765,-12.50731,-0.21069,0.0,49.848923,24.038038,389.0,NaN,2.808,27.0,0.0,7 / 7,242529,2020-03-19 20:27:26:369
-8.959103,-9.902418,-3.351882,0.0,49.848923,24.038038,389.0,NaN,2.808,27.0,0.0,7 / 7,243029,2020-03-19 20:27:26:869
-0.852336,-1.221043,-6.205771,0.0,49.848923,24.038038,389.0,NaN,2.808,27.0,0.0,7 / 7,243529,2020-03-19 20:27:27:369
-2.236184,-9.931149,-3.193865,0.0,49.848923,24.038038,389.0,NaN,2.808,27.0,0.0,7 / 7,244029,2020-03-19 20:27:27:869
-2.911349,-12.018892,-6.502651,0.0,49.848923,24.038038,389.0,NaN,2.808,27.0,0.0,7 / 7,244528,2020-03-19 20:27:28:368
-5.06613,-7.728483,-0.641646,0.0,49.848923,24.038038,389.0,NaN,2.808,27.0,0.0,7 / 7,245028,2020-03-19 20:27:28:868
-3.280056,-3.074155,1.723825,0.0,49.848923,24.038038,389.0,NaN,2.808,27.0,0.0,7 / 7,245528,2020-03-19 20:27:29:368
-0.632069,-18.53591,-4.845864,0.0,49.848923,24.038038,389.0,NaN,2.808,27.0,0.0,7 / 7,246028,2020-03-19 20:27:29:868
-6.114791,-13.627796,-3.174711,0.0,49.848923,24.038038,389.0,NaN,2.808,27.0,0.0,7 / 7,246528,2020-03-19 20:27:30:368
-1.699883,-4.295198,-4.285621,0.0,49.848923,24.038038,389.0,NaN,2.808,27.0,0.0,7 / 7,247028,2020-03-19 20:27:30:868
-6.033388,-7.350199,-0.737414,0.0,49.848923,24.038038,389.0,NaN,2.808,27.0,0.0,7 / 7,247528,2020-03-19 20:27:31:368
-3.093309,-3.145981,1.996764,0.0,49.848923,24.038038,389.0,NaN,2.808,27.0,0.0,7 / 7,248028,2020-03-19 20:27:31:868
-2.911349,-7.656657,3.016694,0.0,49.848923,24.038038,389.0,NaN,2.808,27.0,0.0,7 / 7,248528,2020-03-19 20:27:32:368
-2.418144,-4.596867,1.584962,0.0,49.848923,24.038038,389.0,NaN,2.808,27.0,0.0,7 / 7,249028,2020-03-19 20:27:32:868
-2.676717,-10.960655,0.593762,0.0,49.848923,24.038038,389.0,NaN,2.808,27.0,0.0,0 / 0,249528,2020-03-19 20:27:33:368
-10.429143,-9.586384,-0.363919,0.0,49.848923,24.038038,389.0,NaN,2.808,27.0,0.0,0 / 0,250028,2020-03-19 20:27:33:868
-2.801216,-6.330269,-5.688623,0.0,49.848923,24.038038,389.0,NaN,2.808,27.0,0.0,0 / 4,250529,2020-03-19 20:27:34:369
-2.456451,-10.888829,-2.935291,0.0,49.848923,24.038038,389.0,NaN,2.808,27.0,0.0,0 / 4,251028,2020-03-19 20:27:34:868
-1.814805,-0.244209,2.738967,0.0,49.848923,24.038038,389.0,NaN,2.808,27.0,0.0,0 / 8,251528,2020-03-19 20:27:35:368
-5.080496,-5.544971,0.258574,0.0,49.848923,24.038038,389.0,NaN,2.808,27.0,0.0,0 / 8,252028,2020-03-19 20:27:35:868
-3.89776,-12.148179,-4.266467,0.0,49.848923,24.038038,389.0,NaN,2.808,27.0,0.0,0 / 28,252528,2020-03-19 20:27:36:368
-13.048399,-5.410896,-4.276044,0.0,49.848923,24.038038,389.0,NaN,2.808,27.0,0.0,0 / 28,253029,2020-03-19 20:27:36:869
-2.892196,-14.15452,-0.474052,0.0,49.848923,24.038038,389.0,NaN,2.808,27.0,0.0,12 / 29,253528,2020-03-19 20:27:37:368
-16.318878,-12.435484,-20.072987,0.0,49.848923,24.038038,389.0,NaN,2.808,27.0,0.0,12 / 29,254028,2020-03-19 20:27:37:868
-7.685387,-8.221688,-1.364695,0.0,49.848923,24.038038,389.0,NaN,2.808,27.0,0.0,12 / 29,254528,2020-03-19 20:27:38:368
-2.839523,-0.924162,2.547431,0.0,49.848923,24.038038,389.0,NaN,2.808,27.0,0.0,12 / 29,255028,2020-03-19 20:27:38:868
-1.872266,-10.01734,0.612916,0.0,49.848923,24.038038,389.0,NaN,2.808,27.0,0.0,12 / 29,255528,2020-03-19 20:27:39:368
-6.933608,-10.304645,-2.925714,0.0,49.848923,24.038038,389.0,NaN,2.808,27.0,0.0,12 / 29,256028,2020-03-19 20:27:39:868
-5.142745,0.675165,1.11091,0.0,49.848923,24.038038,389.0,NaN,2.808,27.0,0.0,12 / 29,256529,2020-03-19 20:27:40:369
-5.755661,-11.200075,-0.459687,0.0,49.848923,24.038038,389.0,NaN,2.808,27.0,0.0,12 / 29,257029,2020-03-19 20:27:40:869
-6.301539,-7.709329,-13.101071,0.0,49.848923,24.038038,389.0,NaN,2.808,27.0,0.0,12 / 29,257529,2020-03-19 20:27:41:369
-2.585738,-8.269572,0.057461,0.0,49.848923,24.038038,389.0,NaN,2.808,27.0,0.0,12 / 29,258028,2020-03-19 20:27:41:868
-2.001553,-8.226476,0.387861,0.0,49.848923,24.038038,389.0,NaN,2.808,27.0,0.0,12 / 29,258528,2020-03-19 20:27:42:368
-3.529053,-20.958841,-6.464344,0.0,49.848923,24.038038,389.0,NaN,2.808,27.0,0.0,12 / 29,259028,2020-03-19 20:27:42:868
-1.106121,-11.784261,-2.815581,0.0,49.848923,24.038038,389.0,NaN,2.808,27.0,0.0,12 / 29,259528,2020-03-19 20:27:43:368
-6.454767,-12.531252,12.770672,0.0,49.848923,24.038038,389.0,NaN,2.808,27.0,0.0,12 / 29,260028,2020-03-19 20:27:43:868
-3.960009,-13.125013,-2.178723,0.0,49.848923,24.038038,389.0,NaN,2.808,27.0,0.0,12 / 29,260529,2020-03-19 20:27:44:369
-10.108319,-16.49605,-15.98369,0.0,49.848923,24.038038,389.0,NaN,2.808,27.0,0.0,12 / 29,261029,2020-03-19 20:27:44:869
-4.697424,-7.704541,-1.244985,0.0,49.848923,24.038038,389.0,NaN,2.808,27.0,0.0,12 / 29,261529,2020-03-19 20:27:45:369
-3.907337,-1.695095,3.117251,0.0,49.848923,24.038038,389.0,NaN,2.808,27.0,0.0,12 / 29,262029,2020-03-19 20:27:45:869
-5.257667,-6.014234,0.416591,0.0,49.848923,24.038038,389.0,NaN,2.808,27.0,0.0,12 / 29,262528,2020-03-19 20:27:46:368
-12.540829,-10.357317,2.27928,0.0,49.848923,24.038038,389.0,NaN,2.808,27.0,0.0,12 / 29,263028,2020-03-19 20:27:46:868
-7.718906,-9.370906,-6.880935,0.0,49.848923,24.038038,389.0,NaN,2.808,27.0,0.0,12 / 29,263528,2020-03-19 20:27:47:368
0.316035,-13.895947,0.339977,0.0,49.848923,24.038038,389.0,NaN,2.808,27.0,0.0,12 / 29,264029,2020-03-19 20:27:47:869
-1.68073,-1.628057,1.886631,0.0,49.848923,24.038038,389.0,NaN,2.808,27.0,0.0,12 / 29,264529,2020-03-19 20:27:48:369
-1.628057,-10.13705,-1.632845,0.0,49.848923,24.038038,389.0,NaN,2.808,27.0,0.0,12 / 29,265029,2020-03-19 20:27:48:869
-2.513912,-1.039083,2.331953,0.0,49.848923,24.038038,389.0,NaN,2.808,27.0,0.0,12 / 29,265529,2020-03-19 20:27:49:369
-4.702212,-6.684611,-0.694318,0.0,49.848923,24.038038,389.0,NaN,2.808,27.0,0.0,12 / 29,266028,2020-03-19 20:27:49:868
-9.476251,-12.023681,-0.991199,0.0,49.848923,24.038038,389.0,NaN,2.808,27.0,0.0,12 / 29,266528,2020-03-19 20:27:50:368
0.397437,11.032481,12.41633,0.0,49.848923,24.038038,389.0,NaN,2.808,27.0,0.0,12 / 29,267028,2020-03-19 20:27:50:868
-6.330269,-9.016563,0.191536,0.0,49.848923,24.038038,389.0,NaN,2.808,27.0,0.0,12 / 29,267528,2020-03-19 20:27:51:368
-1.867477,-4.22816,-3.356671,0.0,49.848923,24.038038,389.0,NaN,2.808,27.0,0.0,12 / 29,268029,2020-03-19 20:27:51:869
-2.236184,-8.264784,0.967258,0.0,49.848923,24.038038,389.0,NaN,2.808,27.0,0.0,12 / 29,268529,2020-03-19 20:27:52:369
-4.204218,-2.37026,2.446874,0.0,49.848923,24.038038,389.0,NaN,2.808,27.0,0.0,12 / 29,269028,2020-03-19 20:27:52:868
-2.164358,-9.078813,-0.158017,0.0,49.848923,24.038038,389.0,NaN,2.808,27.0,0.0,12 / 29,269529,2020-03-19 20:27:53:369
-1.771709,-11.856087,-6.076483,0.0,49.848923,24.038038,389.0,NaN,2.808,27.0,0.0,12 / 29,270028,2020-03-19 20:27:53:868
-4.472368,1.695095,-0.924162,0.0,49.848923,24.038038,389.0,NaN,2.808,27.0,0.0,12 / 29,270528,2020-03-19 20:27:54:368
-3.529053,-12.765883,-1.982399,0.0,49.848923,24.038038,389.0,NaN,2.808,27.0,0.0,12 / 29,271028,2020-03-19 20:27:54:868
-15.68681,-15.988479,-20.84392,0.0,49.848923,24.038038,389.0,NaN,2.808,27.0,0.0,12 / 29,271528,2020-03-19 20:27:55:368
-4.91769,-7.216124,1.134852,0.0,49.848923,24.038038,389.0,NaN,2.808,27.0,0.0,12 / 29,272028,2020-03-19 20:27:55:868
-4.213795,-3.476381,2.331953,0.0,49.848923,24.038038,389.0,NaN,2.808,27.0,0.0,12 / 29,272528,2020-03-19 20:27:56:368
-4.606444,-7.996633,0.086191,0.0,49.848923,24.038038,389.0,NaN,2.808,27.0,0.0,12 / 29,273029,2020-03-19 20:27:56:869
-0.852336,-10.050858,-0.268151,0.0,49.848923,24.038038,389.0,NaN,2.808,27.0,0.0,12 / 29,273529,2020-03-19 20:27:57:369
-5.544971,-11.104307,20.786457,0.0,49.848923,24.038038,389.0,NaN,2.808,27.0,0.0,12 / 29,274029,2020-03-19 20:27:57:869
-3.955221,-12.35887,-1.900996,0.0,49.848923,24.038038,389.0,NaN,2.808,27.0,0.0,12 / 29,274529,2020-03-19 20:27:58:369
-9.399636,-11.008539,-15.38514,0.0,49.848923,24.038038,389.0,NaN,2.808,27.0,0.0,12 / 29,275029,2020-03-19 20:27:58:869
-4.568136,-6.789956,0.943315,0.0,49.848923,24.038038,389.0,NaN,2.808,27.0,0.0,12 / 29,275529,2020-03-19 20:27:59:369
-1.034295,-6.358999,1.149217,0.0,49.848923,24.038038,389.0,NaN,2.808,27.0,0.0,12 / 29,276029,2020-03-19 20:27:59:869
-8.590396,-20.345926,-4.295198,0.0,49.848923,24.038038,389.0,NaN,2.808,27.0,0.0,12 / 29,276529,2020-03-19 20:28:00:369
-4.050989,-13.771448,-3.548207,0.0,49.848923,24.038038,389.0,NaN,2.808,27.0,0.0,12 / 29,277029,2020-03-19 20:28:00:869
-2.274491,-0.502782,1.61848,0.0,49.848923,24.038038,389.0,NaN,2.808,27.0,0.0,12 / 29,277529,2020-03-19 20:28:01:369
-5.535394,-11.329363,-0.976834,0.0,49.848923,24.038038,389.0,NaN,2.808,27.0,0.0,12 / 29,278029,2020-03-19 20:28:01:869
-3.754108,-6.856993,-9.461885,0.0,49.848923,24.038038,389.0,NaN,2.808,27.0,0.0,12 / 29,278529,2020-03-19 20:28:02:369
-2.499546,-8.365341,0.603339,0.0,49.848923,24.038038,389.0,NaN,2.808,27.0,0.0,12 / 29,279029,2020-03-19 20:28:02:869
1.197101,-12.473791,-2.207454,0.0,49.848923,24.038038,389.0,NaN,2.808,27.0,0.0,12 / 29,279529,2020-03-19 20:28:03:369
-6.679823,-10.477027,16.70674,0.0,49.848923,24.038038,389.0,NaN,2.808,27.0,0.0,12 / 29,280029,2020-03-19 20:28:03:869
-3.294421,-15.452178,-2.738967,0.0,49.848923,24.038038,389.0,NaN,2.808,27.0,0.0,12 / 29,280529,2020-03-19 20:28:04:369
-5.372588,-10.491392,-7.73806,0.0,49.848923,24.038038,389.0,NaN,2.808,27.0,0.0,12 / 29,281029,2020-03-19 20:28:04:869
-3.217807,-8.772355,-0.550666,0.0,49.848923,24.038038,389.0,NaN,2.808,27.0,0.0,12 / 29,281529,2020-03-19 20:28:05:369
-2.173935,-5.841852,1.244985,0.0,49.848923,24.038038,389.0,NaN,2.808,27.0,0.0,12 / 29,282029,2020-03-19 20:28:05:869
-2.27928,-7.876923,-0.814029,0.0,49.848923,24.038038,389.0,NaN,2.808,27.0,0.0,12 / 29,282528,2020-03-19 20:28:06:368
-5.482722,-11.176133,-2.772485,0.0,49.848923,24.038038,389.0,NaN,2.808,27.0,0.0,12 / 29,283029,2020-03-19 20:28:06:869
-5.774814,3.126828,10.079589,0.0,49.848923,24.038038,389.0,NaN,2.808,27.0,0.0,12 / 29,283529,2020-03-19 20:28:07:369
-3.754108,-11.626244,-0.986411,0.0,49.848923,24.038038,389.0,NaN,2.808,27.0,0.0,12 / 29,284029,2020-03-19 20:28:07:869
-10.888829,-8.75799,-14.03481,0.0,49.848923,24.038038,389.0,NaN,2.808,27.0,0.0,12 / 29,284528,2020-03-19 20:28:08:368
-4.386177,-7.350199,1.70946,0.0,49.848923,24.038038,389.0,NaN,2.808,27.0,0.0,12 / 29,285029,2020-03-19 20:28:08:869
-2.480393,-2.504335,2.547431,0.0,49.848923,24.038038,389.0,NaN,2.808,27.0,0.0,12 / 29,285528,2020-03-19 20:28:09:368
-1.695095,-11.200075,0.833182,0.0,49.848923,24.038038,389.0,NaN,2.808,27.0,0.0,12 / 29,286028,2020-03-19 20:28:09:868
-2.059013,-11.15698,-0.469264,0.0,49.848923,24.038038,389.0,NaN,2.808,27.0,0.0,12 / 29,286528,2020-03-19 20:28:10:368
-5.511452,-9.873688,25.335442,0.0,49.848923,24.038038,389.0,NaN,2.808,27.0,0.0,12 / 29,287028,2020-03-19 20:28:10:868
-4.046201,-12.057199,-1.838747,0.0,49.848923,24.038038,389.0,NaN,2.808,27.0,0.0,12 / 29,287528,2020-03-19 20:28:11:368
-9.188946,-9.32781,-14.33648,0.0,49.848923,24.038038,389.0,NaN,2.808,27.0,0.0,12 / 29,288028,2020-03-19 20:28:11:868
-3.936067,-7.61835,0.521936,0.0,49.848923,24.038038,389.0,NaN,2.808,27.0,0.0,12 / 29,288528,2020-03-19 20:28:12:368
-2.8491,-3.375824,2.102109,0.0,49.848923,24.038038,389.0,NaN,2.808,27.0,0.0,12 / 29,289028,2020-03-19 20:28:12:868
-5.760449,-6.287173,0.009577,0.0,49.848923,24.038038,389.0,NaN,2.808,27.0,0.0,12 / 29,289528,2020-03-19 20:28:13:368
-11.377247,-11.774684,7.201759,0.0,49.848923,24.038038,389.0,NaN,2.808,27.0,0.0,12 / 29,290029,2020-03-19 20:28:13:869
-1.944092,-12.378023,-1.221043,0.0,49.848923,24.038038,389.0,NaN,2.808,27.0,0.0,12 / 29,290529,2020-03-19 20:28:14:369
-7.97748,-12.018892,-2.202665,0.0,49.848923,24.038038,389.0,NaN,2.808,27.0,0.0,12 / 29,291029,2020-03-19 20:28:14:869
-12.971785,-12.583924,-11.707646,0.0,49.848923,24.038038,389.0,NaN,2.808,27.0,0.0,12 / 29,291529,2020-03-19 20:28:15:369
-0.603339,-12.933477,-0.593762,0.0,49.848923,24.038038,389.0,NaN,2.808,27.0,0.0,12 / 29,292028,2020-03-19 20:28:15:868
-3.351882,-1.307234,3.107674,0.0,49.848923,24.038038,389.0,NaN,2.808,27.0,0.0,12 / 29,292529,2020-03-19 20:28:16:369
-3.53863,-8.255207,0.885855,0.0,49.848923,24.038038,389.0,NaN,2.808,27.0,0.0,12 / 29,293029,2020-03-19 20:28:16:869
-5.755661,-12.516887,-4.716577,0.0,49.848923,24.038038,389.0,NaN,2.808,27.0,0.0,12 / 29,293529,2020-03-19 20:28:17:369
-11.87524,4.271256,-11.961432,0.0,49.848923,24.038038,389.0,NaN,2.808,27.0,0.0,12 / 29,294029,2020-03-19 20:28:17:869
-12.009315,-13.967772,-2.154781,0.0,49.848923,24.038038,389.0,NaN,2.808,27.0,0.0,12 / 29,294529,2020-03-19 20:28:18:369
-14.93503,-16.864758,-13.249513,0.0,49.848923,24.038038,389.0,NaN,2.808,27.0,0.0,12 / 29,295029,2020-03-19 20:28:18:869
-4.065354,-11.678916,-0.158017,0.0,49.848923,24.038038,389.0,NaN,2.808,27.0,0.0,12 / 29,295529,2020-03-19 20:28:19:369
-2.097321,-3.701436,-1.187524,0.0,49.848923,24.038038,389.0,NaN,2.808,27.0,0.0,12 / 29,296029,2020-03-19 20:28:19:869
-1.465251,-8.346187,0.268151,0.0,49.848923,24.038038,389.0,NaN,2.808,27.0,0.0,12 / 29,296528,2020-03-19 20:28:20:368
-1.728614,-9.998186,0.890643,0.0,49.848923,24.038038,389.0,NaN,2.808,27.0,0.0,12 / 29,297029,2020-03-19 20:28:20:869
-0.895431,-13.034034,-0.933739,0.0,49.848923,24.038038,389.0,NaN,2.808,27.0,0.0,12 / 29,297529,2020-03-19 20:28:21:369
-8.207323,-11.482592,-1.594538,0.0,49.848923,24.038038,389.0,NaN,2.808,27.0,0.0,12 / 29,298029,2020-03-19 20:28:21:869
-6.311115,-23.161507,-7.383718,0.0,49.848923,24.038038,389.0,NaN,2.808,27.0,0.0,12 / 29,298528,2020-03-19 20:28:22:368
-4.869806,-15.749059,-2.466028,0.0,49.848923,24.038038,389.0,NaN,2.808,27.0,0.0,12 / 29,299028,2020-03-19 20:28:22:868
-2.394202,-9.141062,-6.976703,0.0,49.848923,24.038038,389.0,NaN,2.808,27.0,0.0,12 / 29,299528,2020-03-19 20:28:23:368
-2.715025,-9.121908,-0.201113,0.0,49.848923,24.038038,389.0,NaN,2.808,27.0,0.0,12 / 29,300028,2020-03-19 20:28:23:868
-4.161122,-1.517924,2.102109,0.0,49.848923,24.038038,389.0,NaN,2.808,27.0,0.0,12 / 29,300528,2020-03-19 20:28:24:368
-6.684611,-6.378153,-1.728614,0.0,49.848923,24.038038,389.0,NaN,2.808,27.0,0.0,12 / 29,301028,2020-03-19 20:28:24:868
-13.393165,-12.08593,-1.508347,0.0,49.848923,24.038038,389.0,NaN,2.808,27.0,0.0,12 / 29,301528,2020-03-19 20:28:25:368
11.133038,-11.884817,27.08321,0.0,49.848923,24.038038,389.0,NaN,2.808,27.0,0.0,12 / 29,302028,2020-03-19 20:28:25:868
-3.782838,-11.477803,-1.666364,0.0,49.848923,24.038038,389.0,NaN,2.808,27.0,0.0,12 / 29,302529,2020-03-19 20:28:26:369
-20.81519,-15.26543,-18.215086,0.0,49.848923,24.038038,389.0,NaN,2.808,27.0,0.0,12 / 29,303029,2020-03-19 20:28:26:869
-3.677494,-10.864887,-0.488417,0.0,49.848923,24.038038,389.0,NaN,2.808,27.0,0.0,12 / 29,303529,2020-03-19 20:28:27:369
-2.873042,-1.944092,1.235408,0.0,49.848923,24.038038,389.0,NaN,2.808,27.0,0.0,12 / 29,304029,2020-03-19 20:28:27:869
-2.331952,-8.106766,-2.303222,0.0,49.848923,24.038038,389.0,NaN,2.808,27.0,0.0,12 / 29,304528,2020-03-19 20:28:28:368
-6.943185,-7.963114,-1.484405,0.0,49.848923,24.038038,389.0,NaN,2.808,27.0,0.0,12 / 29,305028,2020-03-19 20:28:28:868
-7.876923,3.356671,0.727837,0.0,49.848923,24.038038,389.0,NaN,2.808,27.0,0.0,12 / 29,305528,2020-03-19 20:28:29:368
-5.482722,-11.449073,-2.169147,0.0,49.848923,24.038038,389.0,NaN,2.808,27.0,0.0,12 / 29,306028,2020-03-19 20:28:29:868
-2.504335,-1.345541,2.935291,0.0,49.848923,24.038038,389.0,NaN,2.808,27.0,0.0,12 / 29,306528,2020-03-19 20:28:30:368
-0.938527,-11.544841,-1.096544,0.0,49.848923,24.038038,389.0,NaN,2.808,27.0,0.0,12 / 29,307028,2020-03-19 20:28:30:868
-3.169923,-2.001553,1.853112,0.0,49.848923,24.038038,389.0,NaN,2.808,27.0,0.0,12 / 29,307528,2020-03-19 20:28:31:368
-8.240842,-3.940856,-2.408567,0.0,49.848923,24.038038,389.0,NaN,2.808,27.0,0.0,12 / 29,308028,2020-03-19 20:28:31:868
-11.669339,-11.482592,-1.441309,0.0,49.848923,24.038038,389.0,NaN,2.808,27.0,0.0,12 / 29,308528,2020-03-19 20:28:32:368
-8.968679,5.291186,-4.189853,0.0,49.848923,24.038038,389.0,NaN,2.808,27.0,0.0,12 / 29,309028,2020-03-19 20:28:32:868
-5.492298,-11.291056,-0.335188,0.0,49.848923,24.038038,389.0,NaN,2.808,27.0,0.0,12 / 29,309528,2020-03-19 20:28:33:368
-7.747637,-9.528923,-9.706094,0.0,49.848923,24.038038,389.0,NaN,2.808,27.0,0.0,12 / 29,310028,2020-03-19 20:28:33:868
-3.672705,-7.651869,1.077391,0.0,49.848923,24.038038,389.0,NaN,2.808,27.0,0.0,12 / 29,310528,2020-03-19 20:28:34:368
-1.584961,-3.016694,-0.986411,0.0,49.848923,24.038038,389.0,NaN,2.808,27.0,0.0,12 / 29,311028,2020-03-19 20:28:34:868
-1.01993,-8.963891,-0.507571,0.0,49.848923,24.038038,389.0,NaN,2.808,27.0,0.0,12 / 29,311528,2020-03-19 20:28:35:368
0.952892,-11.525687,-1.216254,0.0,49.848923,24.038038,389.0,NaN,2.808,27.0,0.0,12 / 29,312028,2020-03-19 20:28:35:868
-9.792285,-15.246277,1.225831,0.0,49.848923,24.038038,389.0,NaN,2.808,27.0,0.0,12 / 29,312528,2020-03-19 20:28:36:368
-5.386954,-14.111424,-2.887407,0.0,49.848923,24.038038,389.0,NaN,2.808,27.0,0.0,12 / 29,313028,2020-03-19 20:28:36:868
-8.350976,-6.545747,-7.374141,0.0,49.848923,24.038038,389.0,NaN,2.808,27.0,0.0,12 / 29,313528,2020-03-19 20:28:37:368
-7.072471,-7.091625,-2.782062,0.0,49.848923,24.038038,389.0,NaN,2.808,27.0,0.0,12 / 29,314028,2020-03-19 20:28:37:868
-3.270479,-2.030283,2.351106,0.0,49.848923,24.038038,389.0,NaN,2.808,27.0,0.0,12 / 29,314528,2020-03-19 20:28:38:368
-9.41879,-5.449203,-1.264138,0.0,49.848923,24.038038,389.0,NaN,2.808,27.0,0.0,12 / 29,315028,2020-03-19 20:28:38:868
-3.572149,-3.754108,2.853889,0.0,49.848923,24.038038,389.0,NaN,2.808,27.0,0.0,12 / 29,315528,2020-03-19 20:28:39:368
-2.767697,-9.409213,1.130063,0.0,49.848923,24.038038,389.0,NaN,2.808,27.0,0.0,12 / 29,316028,2020-03-19 20:28:39:868
-11.492168,-8.90643,-1.690306,0.0,49.848923,24.038038,389.0,NaN,2.808,27.0,0.0,12 / 29,316528,2020-03-19 20:28:40:368
-1.015141,-4.975151,-6.23929,0.0,49.848923,24.038038,389.0,NaN,2.808,27.0,0.0,12 / 29,317028,2020-03-19 20:28:40:868
-0.756568,-10.462662,-2.978387,0.0,49.848923,24.038038,389.0,NaN,2.808,27.0,0.0,0 / 0,317528,2020-03-19 20:28:41:368
-2.925714,-1.608903,2.049437,0.0,49.848923,24.038038,389.0,NaN,2.808,27.0,0.0,0 / 1,318028,2020-03-19 20:28:41:868
-9.5385,-6.74686,-1.886631,0.0,49.848923,24.038038,389.0,NaN,2.808,27.0,0.0,0 / 1,318528,2020-03-19 20:28:42:368
-13.043611,-11.669339,5.31034,0.0,49.848923,24.038038,389.0,NaN,2.808,27.0,0.0,0 / 11,319029,2020-03-19 20:28:42:869
-2.619257,-11.142614,0.095768,0.0,49.848923,24.038038,389.0,NaN,2.808,27.0,0.0,0 / 11,319529,2020-03-19 20:28:43:369
-9.768343,-9.332599,-2.930503,0.0,49.848923,24.038038,389.0,NaN,2.808,27.0,0.0,0 / 26,320028,2020-03-19 20:28:43:868
-8.825027,-10.175357,-10.342952,0.0,49.848923,24.038038,389.0,NaN,2.808,27.0,0.0,12 / 29,320528,2020-03-19 20:28:44:368
-0.761356,-12.382812,-3.653552,0.0,49.848923,24.038038,389.0,NaN,2.808,27.0,0.0,12 / 29,321029,2020-03-19 20:28:44:869
-2.777274,-1.604115,1.867477,0.0,49.848923,24.038038,389.0,NaN,2.808,27.0,0.0,12 / 29,321529,2020-03-19 20:28:45:369
-4.611232,-7.235277,-0.881066,0.0,49.848923,24.038038,389.0,NaN,2.808,27.0,0.0,12 / 29,322029,2020-03-19 20:28:45:869
-4.247314,-12.373235,-4.544194,0.0,49.848923,24.038038,389.0,NaN,2.808,27.0,0.0,12 / 29,322529,2020-03-19 20:28:46:369
-3.145981,4.347871,4.596867,0.0,49.848923,24.038038,389.0,NaN,2.808,27.0,0.0,12 / 29,323028,2020-03-19 20:28:46:868
-5.214571,-13.110648,-2.528277,0.0,49.848923,24.038038,389.0,NaN,2.808,27.0,0.0,12 / 29,323528,2020-03-19 20:28:47:368
-17.386692,-13.94383,-18.224663,0.0,49.848923,24.038038,389.0,NaN,2.808,27.0,0.0,12 / 29,324028,2020-03-19 20:28:47:868
-4.328717,-11.650186,0.92895,0.0,49.848923,24.038038,389.0,NaN,2.808,27.0,0.0,12 / 29,324528,2020-03-19 20:28:48:368
-2.236184,-3.414132,-3.155558,0.0,49.848923,24.038038,389.0,NaN,2.808,27.0,0.0,12 / 29,325028,2020-03-19 20:28:48:868
-4.687847,-7.283161,-0.234632,0.0,49.848923,24.038038,389.0,NaN,2.808,27.0,0.0,12 / 29,325529,2020-03-19 20:28:49:369
-0.11971,-9.414001,0.684742,0.0,49.848923,24.038038,389.0,NaN,2.808,27.0,0.0,12 / 29,326028,2020-03-19 20:28:49:868
-1.958457,-17.190369,-5.688623,0.0,49.848923,24.038038,389.0,NaN,2.808,27.0,0.0,12 / 29,326529,2020-03-19 20:28:50:369
-6.526593,-11.736377,-4.764461,0.0,49.848923,24.038038,389.0,NaN,2.808,27.0,0.0,12 / 29,327029,2020-03-19 20:28:50:869
-3.169923,-6.29675,-5.315128,0.0,49.848923,24.038038,389.0,NaN,2.808,27.0,0.0,12 / 29,327529,2020-03-19 20:28:51:369
-1.015141,-9.993398,-0.502782,0.0,49.848923,24.038038,389.0,NaN,2.808,27.0,0.0,12 / 29,328028,2020-03-19 20:28:51:868
-3.639186,-1.508347,2.331953,0.0,49.848923,24.038038,389.0,NaN,2.808,27.0,0.0,12 / 29,328528,2020-03-19 20:28:52:368
-8.350976,-5.592855,-1.029507,0.0,49.848923,24.038038,389.0,NaN,2.808,27.0,0.0,12 / 29,329028,2020-03-19 20:28:52:868
-3.634398,-1.316811,3.562572,0.0,49.848923,24.038038,389.0,NaN,2.808,27.0,0.0,12 / 29,329528,2020-03-19 20:28:53:368
-5.415684,-5.588066,1.584962,0.0,49.848923,24.038038,389.0,NaN,2.808,27.0,0.0,12 / 29,330028,2020-03-19 20:28:53:868
-13.934254,-9.787497,5.224149,0.0,49.848923,24.038038,389.0,NaN,2.808,27.0,0.0,12 / 29,330528,2020-03-19 20:28:54:368
-11.295844,-12.828133,-9.131485,0.0,49.848923,24.038038,389.0,NaN,2.808,27.0,0.0,12 / 29,331028,2020-03-19 20:28:54:868
-1.929727,-13.43626,-1.359906,0.0,49.848923,24.038038,389.0,NaN,2.808,27.0,0.0,12 / 29,331528,2020-03-19 20:28:55:368
-3.41892,-1.240196,1.786075,0.0,49.848923,24.038038,389.0,NaN,2.808,27.0,0.0,12 / 29,332028,2020-03-19 20:28:55:868
-3.040636,-8.542512,-0.344765,0.0,49.848923,24.038038,389.0,NaN,2.808,27.0,0.0,12 / 29,332528,2020-03-19 20:28:56:368
-9.739613,-11.784261,-2.992752,0.0,49.848923,24.038038,389.0,NaN,2.808,27.0,0.0,12 / 29,333028,2020-03-19 20:28:56:868
-6.890512,-6.794744,0.914585,0.0,49.848923,24.038038,389.0,NaN,2.808,27.0,0.0,12 / 29,333528,2020-03-19 20:28:57:368
-11.061212,-12.368446,4.515465,0.0,49.848923,24.038038,389.0,NaN,2.808,27.0,0.0,12 / 29,334028,2020-03-19 20:28:57:868
-10.606314,-13.091495,-10.0748,0.0,49.848923,24.038038,389.0,NaN,2.808,27.0,0.0,12 / 29,334528,2020-03-19 20:28:58:368
-1.053449,-12.665327,1.158794,0.0,49.848923,24.038038,389.0,NaN,2.808,27.0,0.0,12 / 29,335028,2020-03-19 20:28:58:868
-2.806004,-1.503559,1.924938,0.0,49.848923,24.038038,389.0,NaN,2.808,27.0,0.0,12 / 29,335528,2020-03-19 20:28:59:368
-2.542642,-9.428367,0.325611,0.0,49.848923,24.038038,389.0,NaN,2.808,27.0,0.0,12 / 29,336029,2020-03-19 20:28:59:869
-5.999869,-10.582372,-0.445322,0.0,49.848923,24.038038,389.0,NaN,2.808,27.0,0.0,12 / 29,336528,2020-03-19 20:29:00:368
-7.757213,-21.600489,-5.348646,0.0,49.848923,24.038038,389.0,NaN,2.808,27.0,0.0,12 / 29,337028,2020-03-19 20:29:00:868
-8.681376,-11.166556,-1.742979,0.0,49.848923,24.038038,389.0,NaN,2.808,27.0,0.0,12 / 29,337528,2020-03-19 20:29:01:368
-7.110779,5.506664,-3.256114,0.0,49.848923,24.038038,389.0,NaN,2.808,27.0,0.0,12 / 29,338028,2020-03-19 20:29:01:868
-4.975151,-13.215993,-0.823605,0.0,49.848923,24.038038,389.0,NaN,2.808,27.0,0.0,12 / 29,338528,2020-03-19 20:29:02:368
-5.947197,-6.991069,-11.51611,0.0,49.848923,24.038038,389.0,NaN,2.808,27.0,0.0,12 / 29,339028,2020-03-19 20:29:02:868
-2.834735,-9.165004,1.077391,0.0,49.848923,24.038038,389.0,NaN,2.808,27.0,0.0,12 / 29,339528,2020-03-19 20:29:03:368
-6.023811,-11.439496,-1.82917,0.0,49.848923,24.038038,389.0,NaN,2.808,27.0,0.0,12 / 29,340028,2020-03-19 20:29:03:868
-3.773262,-8.51857,21.930887,0.0,49.848923,24.038038,389.0,NaN,2.808,27.0,0.0,12 / 29,340528,2020-03-19 20:29:04:368
-4.434061,-13.034034,-2.394202,0.0,49.848923,24.038038,389.0,NaN,2.808,27.0,0.0,12 / 29,341028,2020-03-19 20:29:04:868
-11.822568,-2.250549,7.795521,0.0,49.848923,24.038038,389.0,NaN,2.808,27.0,0.0,12 / 29,341528,2020-03-19 20:29:05:368
-5.228936,-10.692505,1.192313,0.0,49.848923,24.038038,389.0,NaN,2.808,27.0,0.0,12 / 29,342028,2020-03-19 20:29:05:868
-4.879383,-7.915231,-11.262324,0.0,49.848923,24.038038,389.0,NaN,2.808,27.0,0.0,12 / 29,342528,2020-03-19 20:29:06:368
-3.265691,-7.819463,-0.531513,0.0,49.848923,24.038038,389.0,NaN,2.808,27.0,0.0,12 / 29,343028,2020-03-19 20:29:06:868
-0.699107,-11.530476,-0.593762,0.0,49.848923,24.038038,389.0,NaN,2.808,27.0,0.0,12 / 29,343528,2020-03-19 20:29:07:368
-1.795651,-16.79772,-3.998317,0.0,49.848923,24.038038,389.0,NaN,2.808,27.0,0.0,12 / 29,344028,2020-03-19 20:29:07:868
-8.887277,-11.03727,-4.659116,0.0,49.848923,24.038038,389.0,NaN,2.808,27.0,0.0,12 / 29,344529,2020-03-19 20:29:08:369
-6.382941,-6.062118,-3.605668,0.0,49.848923,24.038038,389.0,NaN,2.808,27.0,0.0,12 / 29,345028,2020-03-19 20:29:08:868
-2.221819,-16.25663,-4.194641,0.0,49.848923,24.038038,389.0,NaN,2.808,27.0,0.0,12 / 29,345528,2020-03-19 20:29:09:368
-5.894524,-5.899313,-6.603208,0.0,49.848923,24.038038,389.0,NaN,2.808,27.0,0.0,12 / 29,346028,2020-03-19 20:29:09:868
-4.553771,-7.422025,-0.972046,0.0,49.848923,24.038038,389.0,NaN,2.808,27.0,0.0,12 / 29,346529,2020-03-19 20:29:10:369
-3.203442,-3.634398,1.608904,0.0,49.848923,24.038038,389.0,NaN,2.808,27.0,0.0,12 / 29,347029,2020-03-19 20:29:10:869
-4.707,-6.62715,1.479617,0.0,49.848923,24.038038,389.0,NaN,2.808,27.0,0.0,12 / 29,347528,2020-03-19 20:29:11:368
-7.278373,-12.947843,-3.921702,0.0,49.848923,24.038038,389.0,NaN,2.808,27.0,0.0,12 / 29,348028,2020-03-19 20:29:11:868
-2.557007,-4.812345,-5.63595,0.0,49.848923,24.038038,389.0,NaN,2.808,27.0,0.0,12 / 29,348528,2020-03-19 20:29:12:368
-2.408567,-10.386047,-2.269703,0.0,49.848923,24.038038,389.0,NaN,2.808,27.0,0.0,12 / 29,349028,2020-03-19 20:29:12:868
-1.786074,-6.689399,-6.378153,0.0,49.848923,24.038038,389.0,NaN,2.808,27.0,0.0,12 / 29,349528,2020-03-19 20:29:13:368
-5.00867,-8.293514,-1.091756,0.0,49.848923,24.038038,389.0,NaN,2.808,27.0,0.0,12 / 29,350028,2020-03-19 20:29:13:868
-3.289633,-0.842759,3.414132,0.0,49.848923,24.038038,389.0,NaN,2.808,27.0,0.0,12 / 29,350528,2020-03-19 20:29:14:368
-7.369353,-5.123591,3.217807,0.0,49.848923,24.038038,389.0,NaN,2.808,27.0,0.0,12 / 29,351028,2020-03-19 20:29:14:868
-13.311762,-12.148179,5.60722,0.0,49.848923,24.038038,389.0,NaN,2.808,27.0,0.0,12 / 29,351528,2020-03-19 20:29:15:368
-18.588581,-19.148825,-11.291056,0.0,49.848923,24.038038,389.0,NaN,2.808,27.0,0.0,12 / 29,352029,2020-03-19 20:29:15:869
-1.206678,-12.152967,-4.630386,0.0,49.848923,24.038038,389.0,NaN,2.808,27.0,0.0,12 / 29,352529,2020-03-19 20:29:16:369
-2.499546,-1.608903,1.403002,0.0,49.848923,24.038038,389.0,NaN,2.808,27.0,0.0,12 / 29,353029,2020-03-19 20:29:16:869
-6.430825,-7.345411,-1.340753,0.0,49.848923,24.038038,389.0,NaN,2.808,27.0,0.0,12 / 29,353529,2020-03-19 20:29:17:369
-3.08852,-2.346318,2.173935,0.0,49.848923,24.038038,389.0,NaN,2.808,27.0,0.0,12 / 29,354029,2020-03-19 20:29:17:869
-7.149086,-5.72693,0.775721,0.0,49.848923,24.038038,389.0,NaN,2.808,27.0,0.0,12 / 29,354529,2020-03-19 20:29:18:369
-11.410766,-10.582372,3.691859,0.0,49.848923,24.038038,389.0,NaN,2.808,27.0,0.0,12 / 29,355029,2020-03-19 20:29:18:869
-6.900089,-7.699753,-3.074155,0.0,49.848923,24.038038,389.0,NaN,2.808,27.0,0.0,12 / 29,355529,2020-03-19 20:29:19:369
-0.430956,-11.841722,-3.169923,0.0,49.848923,24.038038,389.0,NaN,2.808,27.0,0.0,12 / 29,356029,2020-03-19 20:29:19:869
-2.03986,-0.215478,3.031059,0.0,49.848923,24.038038,389.0,NaN,2.808,27.0,0.0,12 / 29,356529,2020-03-19 20:29:20:369
-4.707,-7.235277,-0.454898,0.0,49.848923,24.038038,389.0,NaN,2.808,27.0,0.0,12 / 29,357028,2020-03-19 20:29:20:868
-12.143391,-11.085154,-2.149993,0.0,49.848923,24.038038,389.0,NaN,2.808,27.0,0.0,12 / 29,357528,2020-03-19 20:29:21:368
-8.327033,-5.473145,1.393425,0.0,49.848923,24.038038,389.0,NaN,2.808,27.0,0.0,12 / 29,358028,2020-03-19 20:29:21:868
-14.144943,-12.540829,6.603208,0.0,49.848923,24.038038,389.0,NaN,2.808,27.0,0.0,12 / 29,358528,2020-03-19 20:29:22:368
-19.761742,-16.577452,-11.391612,0.0,49.848923,24.038038,389.0,NaN,2.808,27.0,0.0,12 / 29,359028,2020-03-19 20:29:22:868
-3.643975,-12.315774,-2.025495,0.0,49.848923,24.038038,389.0,NaN,2.808,27.0,0.0,12 / 29,359528,2020-03-19 20:29:23:368
-4.951209,-1.723825,2.126051,0.0,49.848923,24.038038,389.0,NaN,2.808,27.0,0.0,12 / 29,360028,2020-03-19 20:29:23:868
-6.325481,-5.779603,0.186748,0.0,49.848923,24.038038,389.0,NaN,2.808,27.0,0.0,12 / 29,360528,2020-03-19 20:29:24:368
-13.546393,-10.477027,0.225055,0.0,49.848923,24.038038,389.0,NaN,2.808,27.0,0.0,12 / 29,361028,2020-03-19 20:29:24:868
-13.139379,-20.30762,-4.82671,0.0,49.848923,24.038038,389.0,NaN,2.808,27.0,0.0,12 / 29,361528,2020-03-19 20:29:25:368
-7.996633,-10.496181,-3.98874,0.0,49.848923,24.038038,389.0,NaN,2.808,27.0,0.0,12 / 29,362029,2020-03-19 20:29:25:869
1.613692,-2.944868,-5.434838,0.0,49.848923,24.038038,389.0,NaN,2.808,27.0,0.0,12 / 29,362528,2020-03-19 20:29:26:368
-2.700659,-9.734824,-1.527501,0.0,49.848923,24.038038,389.0,NaN,2.808,27.0,0.0,12 / 29,363028,2020-03-19 20:29:26:868
-3.634398,-1.958457,2.360683,0.0,49.848923,24.038038,389.0,NaN,2.808,27.0,0.0,12 / 29,363528,2020-03-19 20:29:27:368
-9.040505,-4.730942,-2.293645,0.0,49.848923,24.038038,389.0,NaN,2.808,27.0,0.0,12 / 29,364028,2020-03-19 20:29:27:868
-11.281479,-10.898406,4.012682,0.0,49.848923,24.038038,389.0,NaN,2.808,27.0,0.0,12 / 29,364528,2020-03-19 20:29:28:368
-11.774684,-10.055647,-9.509769,0.0,49.848923,24.038038,389.0,NaN,2.808,27.0,0.0,12 / 29,365028,2020-03-19 20:29:28:868
-1.982399,-10.0748,-3.462016,0.0,49.848923,24.038038,389.0,NaN,2.808,27.0,0.0,12 / 29,365529,2020-03-19 20:29:29:369
-10.984597,-12.406754,-15.796943,0.0,49.848923,24.038038,389.0,NaN,2.808,27.0,0.0,12 / 29,366029,2020-03-19 20:29:29:869
-5.544971,-6.584054,-1.11091,0.0,49.848923,24.038038,389.0,NaN,2.808,27.0,0.0,12 / 29,366529,2020-03-19 20:29:30:369
-3.222595,-4.381389,2.217031,0.0,49.848923,24.038038,389.0,NaN,2.808,27.0,0.0,12 / 29,367029,2020-03-19 20:29:30:869
-1.886631,-9.710882,1.015142,0.0,49.848923,24.038038,389.0,NaN,2.808,27.0,0.0,12 / 29,367528,2020-03-19 20:29:31:368
-6.766014,-11.573571,-4.405331,0.0,49.848923,24.038038,389.0,NaN,2.808,27.0,0.0,12 / 29,368029,2020-03-19 20:29:31:869
-2.346318,-10.01734,-5.951985,0.0,49.848923,24.038038,389.0,NaN,2.808,27.0,0.0,12 / 29,368529,2020-03-19 20:29:32:369
-6.172252,-8.135497,0.59855,0.0,49.848923,24.038038,389.0,NaN,2.808,27.0,0.0,12 / 29,369029,2020-03-19 20:29:32:869
-3.500323,0.42138,3.768474,0.0,49.848923,24.038038,389.0,NaN,2.808,27.0,0.0,12 / 29,369529,2020-03-19 20:29:33:369
-4.400542,-7.264008,0.603339,0.0,49.848923,24.038038,389.0,NaN,2.808,27.0,0.0,12 / 29,370028,2020-03-19 20:29:33:868
-3.643975,-3.763685,1.273715,0.0,49.848923,24.038038,389.0,NaN,2.808,27.0,0.0,12 / 29,370528,2020-03-19 20:29:34:368
-7.038953,-4.984728,0.957681,0.0,49.848923,24.038038,389.0,NaN,2.808,27.0,0.0,0 / 1,371028,2020-03-19 20:29:34:868
-11.343728,-9.500193,0.162806,0.0,49.848923,24.038038,389.0,NaN,2.808,27.0,0.0,0 / 1,371528,2020-03-19 20:29:35:368
-7.73806,-7.311892,-9.916783,0.0,49.848923,24.038038,389.0,NaN,2.808,27.0,0.0,9 / 9,372028,2020-03-19 20:29:35:868
-4.094085,-7.795521,-0.593762,0.0,49.848923,24.038038,389.0,NaN,2.808,27.0,0.0,9 / 9,372529,2020-03-19 20:29:36:369
-3.189077,-2.619257,1.94888,0.0,49.848923,24.038038,389.0,NaN,2.808,27.0,0.0,9 / 9,373029,2020-03-19 20:29:36:869
-9.423578,-5.204994,0.258574,0.0,49.848923,24.038038,389.0,NaN,2.808,27.0,0.0,9 / 9,373528,2020-03-19 20:29:37:368
-16.021997,-12.224793,6.248867,0.0,49.848923,24.038038,389.0,NaN,2.808,27.0,0.0,9 / 9,374029,2020-03-19 20:29:37:869
-22.601265,-18.50718,-22.486341,0.0,49.848923,24.038038,389.0,NaN,2.808,27.0,0.0,9 / 9,374528,2020-03-19 20:29:38:368
-3.495534,-11.899182,-2.284068,0.0,49.848923,24.038038,389.0,NaN,2.808,27.0,0.0,9 / 9,375028,2020-03-19 20:29:38:868
-2.542642,-1.211466,1.201889,0.0,49.848923,24.038038,389.0,NaN,2.808,27.0,0.0,9 / 9,375528,2020-03-19 20:29:39:368
-0.756568,-9.14585,-1.063026,0.0,49.848923,24.038038,389.0,NaN,2.808,27.0,0.0,9 / 9,376028,2020-03-19 20:29:39:868
-4.084508,-1.422156,2.48997,0.0,49.848923,24.038038,389.0,NaN,2.808,27.0,0.0,9 / 9,376529,2020-03-19 20:29:40:369
-1.446098,-9.193734,0.59855,0.0,49.848923,24.038038,389.0,NaN,2.808,27.0,0.0,9 / 9,377029,2020-03-19 20:29:40:869
-3.98874,-11.391612,-2.901772,0.0,49.848923,24.038038,389.0,NaN,2.808,27.0,0.0,9 / 9,377528,2020-03-19 20:29:41:368
-6.909666,-0.847547,1.44131,0.0,49.848923,24.038038,389.0,NaN,2.808,27.0,0.0,9 / 9,378028,2020-03-19 20:29:41:868
-3.950433,-11.27669,1.422156,0.0,49.848923,24.038038,389.0,NaN,2.808,27.0,0.0,9 / 9,378528,2020-03-19 20:29:42:368
-3.361459,-7.110779,-12.406754,0.0,49.848923,24.038038,389.0,NaN,2.808,27.0,0.0,9 / 9,379028,2020-03-19 20:29:42:868
-2.643199,-7.388506,-0.871489,0.0,49.848923,24.038038,389.0,NaN,2.808,27.0,0.0,9 / 9,379528,2020-03-19 20:29:43:368
0.464475,-12.172121,0.153229,0.0,49.848923,24.038038,389.0,NaN,2.808,27.0,0.0,9 / 9,380028,2020-03-19 20:29:43:868
-9.519346,-19.230228,-3.165135,0.0,49.848923,24.038038,389.0,NaN,2.808,27.0,0.0,9 / 9,380528,2020-03-19 20:29:44:368
-3.433285,-13.110648,-2.336741,0.0,49.848923,24.038038,389.0,NaN,2.808,27.0,0.0,9 / 9,381028,2020-03-19 20:29:44:868
6.411672,7.455544,23.879768,0.0,49.848923,24.038038,389.0,NaN,2.808,27.0,0.0,9 / 9,381528,2020-03-19 20:29:45:368
-3.672705,-11.836933,-1.321599,0.0,49.848923,24.038038,389.0,NaN,2.808,27.0,0.0,9 / 9,382028,2020-03-19 20:29:45:868
-5.228936,-4.458003,-6.129156,0.0,49.848923,24.038038,389.0,NaN,2.808,27.0,0.0,9 / 9,382528,2020-03-19 20:29:46:368
-2.011129,-7.072471,-0.943315,0.0,49.848923,24.038038,389.0,NaN,2.808,27.0,0.0,9 / 9,383028,2020-03-19 20:29:46:868
0.35913,-12.196063,-1.656788,0.0,49.848923,24.038038,389.0,NaN,2.808,27.0,0.0,9 / 9,383529,2020-03-19 20:29:47:369
-11.511322,-20.42254,-1.862689,0.0,49.848923,24.038038,389.0,NaN,2.808,27.0,0.0,9 / 9,384029,2020-03-19 20:29:47:869
-4.434061,-13.785813,-2.389413,0.0,49.848923,24.038038,389.0,NaN,2.808,27.0,0.0,9 / 9,384528,2020-03-19 20:29:48:368
-7.163451,-11.827356,-14.753071,0.0,49.848923,24.038038,389.0,NaN,2.808,27.0,0.0,9 / 9,385028,2020-03-19 20:29:48:868
-3.552995,-14.647726,-3.203442,0.0,49.848923,24.038038,389.0,NaN,2.808,27.0,0.0,9 / 9,385528,2020-03-19 20:29:49:368
-7.829039,-12.756307,-12.727576,0.0,49.848923,24.038038,389.0,NaN,2.808,27.0,0.0,9 / 9,386029,2020-03-19 20:29:49:869
-6.459556,-7.613561,-2.092532,0.0,49.848923,24.038038,389.0,NaN,2.808,27.0,0.0,9 / 9,386529,2020-03-19 20:29:50:369
-3.021482,-2.269703,1.70946,0.0,49.848923,24.038038,389.0,NaN,2.808,27.0,0.0,9 / 9,387028,2020-03-19 20:29:50:868
-3.849876,-8.030152,0.512359,0.0,49.848923,24.038038,389.0,NaN,2.808,27.0,0.0,9 / 9,387528,2020-03-19 20:29:51:368
-10.922348,-8.183381,-2.906561,0.0,49.848923,24.038038,389.0,NaN,2.808,27.0,0.0,9 / 9,388028,2020-03-19 20:29:51:868
-15.696386,-14.848839,-11.166556,0.0,49.848923,24.038038,389.0,NaN,2.808,27.0,0.0,9 / 9,388529,2020-03-19 20:29:52:369
-2.523488,-9.825804,-1.632845,0.0,49.848923,24.038038,389.0,NaN,2.808,27.0,0.0,9 / 9,389029,2020-03-19 20:29:52:869
-3.711012,-1.968034,2.375048,0.0,49.848923,24.038038,389.0,NaN,2.808,27.0,0.0,9 / 9,389529,2020-03-19 20:29:53:369
-5.449203,-7.474697,-1.417367,0.0,49.848923,24.038038,389.0,NaN,2.808,27.0,0.0,9 / 9,390029,2020-03-19 20:29:53:869
-3.787627,-0.991199,2.231396,0.0,49.848923,24.038038,389.0,NaN,2.808,27.0,0.0,9 / 9,390528,2020-03-19 20:29:54:368
-4.448426,-7.240066,3.323152,0.0,49.848923,24.038038,389.0,NaN,2.808,27.0,0.0,9 / 9,391028,2020-03-19 20:29:54:868
-11.233594,-9.179369,0.071826,0.0,49.848923,24.038038,389.0,NaN,2.808,27.0,0.0,9 / 9,391528,2020-03-19 20:29:55:368
-14.240712,-12.224793,-12.717999,0.0,49.848923,24.038038,389.0,NaN,2.808,27.0,0.0,9 / 9,392028,2020-03-19 20:29:55:868
-2.126051,-13.326127,-0.71826,0.0,49.848923,24.038038,389.0,NaN,2.808,27.0,0.0,9 / 9,392528,2020-03-19 20:29:56:368
-1.49877,-0.54109,1.426944,0.0,49.848923,24.038038,389.0,NaN,2.808,27.0,0.0,9 / 9,393028,2020-03-19 20:29:56:868
-1.704672,-8.231265,-0.277727,0.0,49.848923,24.038038,389.0,NaN,2.808,27.0,0.0,9 / 9,393528,2020-03-19 20:29:57:368
2.054225,-12.100295,-0.699107,0.0,49.848923,24.038038,389.0,NaN,2.808,27.0,0.0,9 / 9,394028,2020-03-19 20:29:57:868
-1.527501,-8.149862,1.091756,0.0,49.848923,24.038038,389.0,NaN,2.808,27.0,0.0,9 / 9,394528,2020-03-19 20:29:58:368
3.05979,-12.224793,-1.383848,0.0,49.848923,24.038038,389.0,NaN,2.808,27.0,0.0,9 / 9,395028,2020-03-19 20:29:58:868
-4.113238,-18.636465,-3.246537,0.0,49.848923,24.038038,389.0,NaN,2.808,27.0,0.0,9 / 9,395528,2020-03-19 20:29:59:368
-10.534488,-9.471462,-2.628833,0.0,49.848923,24.038038,389.0,NaN,2.808,27.0,0.0,9 / 9,396028,2020-03-19 20:29:59:868
-31.297005,-27.26038,-2.557007,0.0,49.848923,24.038038,389.0,NaN,2.808,27.0,0.0,9 / 9,396528,2020-03-19 20:30:00:368
-5.717354,-11.932701,-0.493206,0.0,49.848923,24.038038,389.0,NaN,2.808,27.0,0.0,9 / 9,397028,2020-03-19 20:30:00:868
-8.135497,-5.544971,-10.041282,0.0,49.848923,24.038038,389.0,NaN,2.808,27.0,0.0,9 / 9,397529,2020-03-19 20:30:01:369
-3.983951,-8.829816,0.756568,0.0,49.848923,24.038038,389.0,NaN,2.808,27.0,0.0,9 / 9,398029,2020-03-19 20:30:01:869
-2.671929,-7.489063,-0.392649,0.0,49.848923,24.038038,389.0,NaN,2.808,27.0,0.0,9 / 9,398528,2020-03-19 20:30:02:368
-7.053318,-12.301409,13.345281,0.0,49.848923,24.038038,389.0,NaN,2.808,27.0,0.0,9 / 9,399028,2020-03-19 20:30:02:868
-6.354211,-11.654974,-1.000776,0.0,49.848923,24.038038,389.0,NaN,2.808,27.0,0.0,9 / 9,399528,2020-03-19 20:30:03:368
-11.195287,-14.173674,-18.856733,0.0,49.848923,24.038038,389.0,NaN,2.808,27.0,0.0,9 / 9,400028,2020-03-19 20:30:03:868
-5.324704,-7.441179,-0.574608,0.0,49.848923,24.038038,389.0,NaN,2.808,27.0,0.0,9 / 9,400528,2020-03-19 20:30:04:368
-6.05733,-8.288726,-10.472239,0.0,49.848923,24.038038,389.0,NaN,2.808,27.0,0.0,9 / 9,401029,2020-03-19 20:30:04:869
-2.466028,-7.594407,1.642422,0.0,49.848923,24.038038,389.0,NaN,2.808,27.0,0.0,9 / 9,401529,2020-03-19 20:30:05:369
0.167594,-11.669339,-0.301669,0.0,49.848923,24.038038,389.0,NaN,2.808,27.0,0.0,9 / 9,402029,2020-03-19 20:30:05:869
-14.561535,-14.30775,19.393034,0.0,49.848923,24.038038,389.0,NaN,2.808,27.0,0.0,9 / 9,402529,2020-03-19 20:30:06:369
-4.975151,-11.832145,-1.106121,0.0,49.848923,24.038038,389.0,NaN,2.808,27.0,0.0,9 / 9,403028,2020-03-19 20:30:06:868
-11.999739,-10.788273,-16.31409,0.0,49.848923,24.038038,389.0,NaN,2.808,27.0,0.0,9 / 9,403528,2020-03-19 20:30:07:368
-4.036624,-7.335834,2.303222,0.0,49.848923,24.038038,389.0,NaN,2.808,27.0,0.0,9 / 9,404028,2020-03-19 20:30:07:868
-2.169147,-5.023035,1.091756,0.0,49.848923,24.038038,389.0,NaN,2.808,27.0,0.0,9 / 9,404529,2020-03-19 20:30:08:369
-3.552995,-8.863335,1.388637,0.0,49.848923,24.038038,389.0,NaN,2.808,27.0,0.0,9 / 9,405029,2020-03-19 20:30:08:869
-7.776367,-10.601525,-1.757344,0.0,49.848923,24.038038,389.0,NaN,2.808,27.0,0.0,9 / 9,405529,2020-03-19 20:30:09:369
-5.650316,-2.485181,15.873557,0.0,49.848923,24.038038,389.0,NaN,2.808,27.0,0.0,9 / 9,406029,2020-03-19 20:30:09:869
-5.324704,-11.238382,-1.000776,0.0,49.848923,24.038038,389.0,NaN,2.808,27.0,0.0,9 / 9,406529,2020-03-19 20:30:10:369
-4.525041,-7.254431,-7.752425,0.0,49.848923,24.038038,389.0,NaN,2.808,27.0,0.0,9 / 9,407029,2020-03-19 20:30:10:869
-3.107674,-7.489063,0.502782,0.0,49.848923,24.038038,389.0,NaN,2.808,27.0,0.0,9 / 9,407529,2020-03-19 20:30:11:369
-0.004788,-7.465121,0.933739,0.0,49.848923,24.038038,389.0,NaN,2.808,27.0,0.0,9 / 9,408028,2020-03-19 20:30:11:868
-4.707,-20.355503,-7.460332,0.0,49.848923,24.038038,389.0,NaN,2.808,27.0,0.0,9 / 9,408529,2020-03-19 20:30:12:369
-3.859453,-14.106636,-3.05979,0.0,49.848923,24.038038,389.0,NaN,2.808,27.0,0.0,9 / 9,409029,2020-03-19 20:30:12:869
0.052672,-6.550535,-4.161122,0.0,49.848923,24.038038,389.0,NaN,2.808,27.0,0.0,9 / 9,409529,2020-03-19 20:30:13:369
-4.965574,-12.440272,-1.182736,0.0,49.848923,24.038038,389.0,NaN,2.808,27.0,0.0,9 / 9,410029,2020-03-19 20:30:13:869
-6.62715,-7.771579,-10.453085,0.0,49.848923,24.038038,389.0,NaN,2.808,27.0,0.0,9 / 9,410528,2020-03-19 20:30:14:368
-2.126051,-6.612785,-2.092532,0.0,49.848923,24.038038,389.0,NaN,2.808,27.0,0.0,9 / 9,411028,2020-03-19 20:30:14:868
-7.920019,-11.745954,-2.557007,0.0,49.848923,24.038038,389.0,NaN,2.808,27.0,0.0,9 / 9,411528,2020-03-19 20:30:15:368
-8.054094,-1.915361,-0.732626,0.0,49.848923,24.038038,389.0,NaN,2.808,27.0,0.0,9 / 9,412028,2020-03-19 20:30:15:868
-5.137956,-11.722012,2.408567,0.0,49.848923,24.038038,389.0,NaN,2.808,27.0,0.0,9 / 9,412528,2020-03-19 20:30:16:368
-0.392649,-2.566584,-1.944092,0.0,49.848923,24.038038,389.0,NaN,2.808,27.0,0.0,9 / 9,413028,2020-03-19 20:30:16:868
-1.043872,-8.044517,-1.422156,0.0,49.848923,24.038038,389.0,NaN,2.808,27.0,0.0,9 / 9,413528,2020-03-19 20:30:17:368
-4.118027,-2.331952,1.910573,0.0,49.848923,24.038038,389.0,NaN,2.808,27.0,0.0,9 / 9,414028,2020-03-19 20:30:17:868
-3.270479,-9.169792,-1.201889,0.0,49.848923,24.038038,389.0,NaN,2.808,27.0,0.0,9 / 9,414528,2020-03-19 20:30:18:368
-10.984597,-10.936713,1.460463,0.0,49.848923,24.038038,389.0,NaN,2.808,27.0,0.0,9 / 9,415028,2020-03-19 20:30:18:868
-25.412056,-25.412056,-19.354727,0.0,49.848923,24.038038,389.0,NaN,2.808,27.0,0.0,9 / 9,415528,2020-03-19 20:30:19:368
-2.485181,-11.674128,0.651223,0.0,49.848923,24.038038,389.0,NaN,2.808,27.0,0.0,9 / 9,416028,2020-03-19 20:30:19:868
-1.532289,-2.590526,0.986411,0.0,49.848923,24.038038,389.0,NaN,2.808,27.0,0.0,9 / 9,416528,2020-03-19 20:30:20:368
-4.367024,-7.364564,0.229843,0.0,49.848923,24.038038,389.0,NaN,2.808,27.0,0.0,9 / 9,417029,2020-03-19 20:30:20:869
-6.818686,-10.328587,-2.858677,0.0,49.848923,24.038038,389.0,NaN,2.808,27.0,0.0,9 / 9,417529,2020-03-19 20:30:21:369
-7.354987,-4.869806,-0.258574,0.0,49.848923,24.038038,389.0,NaN,2.808,27.0,0.0,9 / 9,418028,2020-03-19 20:30:21:868
-8.561666,-9.801862,-2.647987,0.0,49.848923,24.038038,389.0,NaN,2.808,27.0,0.0,9 / 9,418528,2020-03-19 20:30:22:368
-0.799663,-3.466804,-5.032612,0.0,49.848923,24.038038,389.0,NaN,2.808,27.0,0.0,9 / 9,419028,2020-03-19 20:30:22:868
-0.483629,-12.440272,-0.067038,0.0,49.848923,24.038038,389.0,NaN,2.808,27.0,0.0,9 / 9,419529,2020-03-19 20:30:23:369
-3.442862,-2.078167,1.766921,0.0,49.848923,24.038038,389.0,NaN,2.808,27.0,0.0,9 / 9,420029,2020-03-19 20:30:23:869
-5.305551,-6.157887,1.053449,0.0,49.848923,24.038038,389.0,NaN,2.808,27.0,0.0,9 / 9,420529,2020-03-19 20:30:24:369
-6.770802,-11.827356,-5.137956,0.0,49.848923,24.038038,389.0,NaN,2.808,27.0,0.0,9 / 9,421029,2020-03-19 20:30:24:869
0.416591,5.588067,9.136273,0.0,49.848923,24.038038,389.0,NaN,2.808,27.0,0.0,9 / 9,421529,2020-03-19 20:30:25:369
-5.482722,-10.156203,-1.000776,0.0,49.848923,24.038038,389.0,NaN,2.808,27.0,0.0,9 / 9,422028,2020-03-19 20:30:25:868
-4.984728,-10.113108,-7.364564,0.0,49.848923,24.038038,389.0,NaN,2.808,27.0,0.0,9 / 9,422528,2020-03-19 20:30:26:368
-1.316811,-12.65575,-4.252102,0.0,49.848923,24.038038,389.0,NaN,2.808,27.0,0.0,9 / 9,423028,2020-03-19 20:30:26:868
-3.682282,-2.197877,1.857901,0.0,49.848923,24.038038,389.0,NaN,2.808,27.0,0.0,9 / 9,423528,2020-03-19 20:30:27:368
-3.62961,-8.15465,0.258574,0.0,49.848923,24.038038,389.0,NaN,2.808,27.0,0.0,9 / 9,424028,2020-03-19 20:30:27:868
-2.437297,-10.295067,-4.338293,0.0,49.848923,24.038038,389.0,NaN,2.808,27.0,0.0,9 / 9,424528,2020-03-19 20:30:28:368
-2.27928,0.876278,10.951078,0.0,49.848923,24.038038,389.0,NaN,2.808,27.0,0.0,9 / 9,425028,2020-03-19 20:30:28:868
-4.855441,-17.070658,-4.520252,0.0,49.848923,24.038038,389.0,NaN,2.808,27.0,0.0,0 / 0,425529,2020-03-19 20:30:29:369
-1.570596,-4.908113,-6.947973,0.0,49.848923,24.038038,389.0,NaN,2.808,27.0,0.0,0 / 0,426029,2020-03-19 20:30:29:869
0.019154,-12.038046,-2.681506,0.0,49.848923,24.038038,389.0,NaN,2.808,27.0,0.0,0 / 4,426528,2020-03-19 20:30:30:368
-3.65834,-1.872266,2.825158,0.0,49.848923,24.038038,389.0,NaN,2.808,27.0,0.0,0 / 4,427028,2020-03-19 20:30:30:868
-1.968034,-10.122684,-3.586514,0.0,49.848923,24.038038,389.0,NaN,2.808,27.0,0.0,0 / 5,427528,2020-03-19 20:30:31:368
-3.050213,-1.388637,2.269703,0.0,49.848923,24.038038,389.0,NaN,2.808,27.0,0.0,0 / 5,428028,2020-03-19 20:30:31:868
-2.782062,-8.121132,0.474052,0.0,49.847195,24.041876,374.0,NaN,4.716,31.500002,256.7,10 / 14,428528,2020-03-19 20:30:32:368
-2.705448,-11.865664,-4.194641,0.0,49.847195,24.041876,374.0,NaN,4.716,31.500002,256.7,10 / 14,429028,2020-03-19 20:30:32:868
-8.513782,-18.607735,-2.571372,0.0,49.847195,24.041876,374.0,NaN,4.716,31.500002,256.7,10 / 14,429528,2020-03-19 20:30:33:368
-3.007117,-14.585477,-5.348646,0.0,49.847195,24.041876,374.0,NaN,4.716,31.500002,256.7,10 / 14,430028,2020-03-19 20:30:33:868
-1.197101,-10.424355,-5.238513,0.0,49.847195,24.041876,374.0,NaN,4.716,31.500002,256.7,10 / 14,430528,2020-03-19 20:30:34:368
-2.42772,-9.548077,-4.649539,0.0,49.847195,24.041876,374.0,NaN,4.716,31.500002,256.7,10 / 14,431028,2020-03-19 20:30:34:868
-2.365471,-1.072602,2.063802,0.0,49.847195,24.041876,374.0,NaN,4.716,31.500002,256.7,10 / 14,431528,2020-03-19 20:30:35:368
-3.620033,-6.780379,0.866701,0.0,49.847195,24.041876,374.0,NaN,4.716,31.500002,256.7,10 / 14,432028,2020-03-19 20:30:35:868
-2.432509,-1.283292,1.972822,0.0,49.847195,24.041876,374.0,NaN,4.716,31.500002,256.7,10 / 14,432528,2020-03-19 20:30:36:368
-0.545878,-7.723695,1.273715,0.0,49.847195,24.041876,374.0,NaN,4.716,31.500002,256.7,10 / 14,433028,2020-03-19 20:30:36:868
0.004788,-8.221688,0.153229,0.0,49.847195,24.041876,374.0,NaN,4.716,31.500002,256.7,10 / 14,433528,2020-03-19 20:30:37:368
-1.158794,-18.641254,-3.845088,0.0,49.847195,24.041876,374.0,NaN,4.716,31.500002,256.7,10 / 14,434029,2020-03-19 20:30:37:869
-12.105083,-9.452309,-2.595315,0.0,49.847195,24.041876,374.0,NaN,4.716,31.500002,256.7,10 / 14,434529,2020-03-19 20:30:38:369
-12.569559,-10.615891,-14.719552,0.0,49.847195,24.041876,374.0,NaN,4.716,31.500002,256.7,10 / 14,435028,2020-03-19 20:30:38:868
-1.115698,-12.248735,0.59855,0.0,49.847195,24.041876,374.0,NaN,4.716,31.500002,256.7,10 / 14,435528,2020-03-19 20:30:39:368
-2.231396,-2.839523,-0.186748,0.0,49.847195,24.041876,374.0,NaN,4.716,31.500002,256.7,10 / 14,436028,2020-03-19 20:30:39:868
-3.591303,-5.444414,-0.248997,0.0,49.847195,24.041876,374.0,NaN,4.716,31.500002,256.7,10 / 14,436528,2020-03-19 20:30:40:368
-3.289633,-0.272939,4.146757,0.0,49.847195,24.041876,374.0,NaN,4.716,31.500002,256.7,10 / 14,437028,2020-03-19 20:30:40:868
-3.232172,-9.68694,1.599327,0.0,49.847195,24.041876,374.0,NaN,4.716,31.500002,256.7,10 / 14,437528,2020-03-19 20:30:41:368
-2.092532,-2.715025,2.298434,0.0,49.847195,24.041876,374.0,NaN,4.716,31.500002,256.7,10 / 14,438028,2020-03-19 20:30:41:868
-7.546523,-5.291186,1.56102,0.0,49.847195,24.041876,374.0,NaN,4.716,31.500002,256.7,10 / 14,438528,2020-03-19 20:30:42:368
-16.577452,-12.430696,-0.574608,0.0,49.847195,24.041876,374.0,NaN,4.716,31.500002,256.7,10 / 14,439028,2020-03-19 20:30:42:868
-2.87783,11.195287,-2.743755,0.0,49.847195,24.041876,374.0,NaN,4.716,31.500002,256.7,10 / 14,439528,2020-03-19 20:30:43:368
-3.68707,-12.435484,-2.059013,0.0,49.847195,24.041876,374.0,NaN,4.716,31.500002,256.7,10 / 14,440028,2020-03-19 20:30:43:868
-8.068459,-7.431602,-12.129025,0.0,49.847195,24.041876,374.0,NaN,4.716,31.500002,256.7,10 / 14,440528,2020-03-19 20:30:44:368
-5.645528,-7.144298,-0.708684,0.0,49.847195,24.041876,374.0,NaN,4.716,31.500002,256.7,10 / 14,441028,2020-03-19 20:30:44:868
-3.878607,-2.221819,3.725378,0.0,49.847195,24.041876,374.0,NaN,4.716,31.500002,256.7,10 / 14,441528,2020-03-19 20:30:45:368
-5.420472,-8.408437,0.766145,0.0,49.847195,24.041876,374.0,NaN,4.716,31.500002,256.7,10 / 14,442029,2020-03-19 20:30:45:869
-3.734954,-2.245761,2.686294,0.0,49.847195,24.041876,374.0,NaN,4.716,31.500002,256.7,10 / 14,442528,2020-03-19 20:30:46:368
-4.912902,-5.923255,1.742979,0.0,49.847195,24.041876,374.0,NaN,4.716,31.500002,256.7,10 / 14,443028,2020-03-19 20:30:46:868
-18.215086,-12.938266,4.477157,0.0,49.847195,24.041876,374.0,NaN,4.716,31.500002,256.7,10 / 14,443528,2020-03-19 20:30:47:368
-8.030152,-16.682798,-5.717354,0.0,49.847195,24.041876,374.0,NaN,4.716,31.500002,256.7,10 / 14,444028,2020-03-19 20:30:47:868
-2.384625,-11.405977,-3.011906,0.0,49.847195,24.041876,374.0,NaN,4.716,31.500002,256.7,10 / 14,444528,2020-03-19 20:30:48:368
-2.619257,-1.934515,0.497994,0.0,49.847195,24.041876,374.0,NaN,4.716,31.500002,256.7,10 / 14,445028,2020-03-19 20:30:48:868
-2.475604,-7.824251,-0.440533,0.0,49.847195,24.041876,374.0,NaN,4.716,31.500002,256.7,10 / 14,445528,2020-03-19 20:30:49:368
-2.078167,-2.303222,-0.852336,0.0,49.847195,24.041876,374.0,NaN,4.716,31.500002,256.7,10 / 14,446028,2020-03-19 20:30:49:868
-1.283292,-8.049306,-1.211466,0.0,49.847195,24.041876,374.0,NaN,4.716,31.500002,256.7,10 / 14,446528,2020-03-19 20:30:50:368
-0.277727,-11.712435,-0.220267,0.0,49.847195,24.041876,374.0,NaN,4.716,31.500002,256.7,10 / 14,447028,2020-03-19 20:30:50:868
-13.249513,-22.079329,-8.00621,0.0,49.847195,24.041876,374.0,NaN,4.716,31.500002,256.7,10 / 14,447528,2020-03-19 20:30:51:368
-11.793838,-10.500969,-1.474828,0.0,49.847195,24.041876,374.0,NaN,4.716,31.500002,256.7,10 / 14,448028,2020-03-19 20:30:51:868
-15.998055,-11.84651,-8.8777,0.0,49.847195,24.041876,374.0,NaN,4.716,31.500002,256.7,10 / 14,448529,2020-03-19 20:30:52:369
-0.703895,-11.880029,-0.995988,0.0,49.847195,24.041876,374.0,NaN,4.716,31.500002,256.7,10 / 14,449029,2020-03-19 20:30:52:869
-2.987964,-2.485181,-0.948104,0.0,49.847195,24.041876,374.0,NaN,4.716,31.500002,256.7,10 / 14,449529,2020-03-19 20:30:53:369
-2.217031,-8.259995,-1.47004,0.0,49.847195,24.041876,374.0,NaN,4.716,31.500002,256.7,10 / 14,450028,2020-03-19 20:30:53:868
-1.182736,-5.353435,1.637634,0.0,49.847195,24.041876,374.0,NaN,4.716,31.500002,256.7,10 / 14,450528,2020-03-19 20:30:54:368
-4.165911,-8.020575,-1.599327,0.0,49.847195,24.041876,374.0,NaN,4.716,31.500002,256.7,10 / 14,451028,2020-03-19 20:30:54:868
-2.801216,-2.844312,3.552995,0.0,49.847195,24.041876,374.0,NaN,4.716,31.500002,256.7,10 / 14,451528,2020-03-19 20:30:55:368
-6.50744,-6.244078,-0.387861,0.0,49.847195,24.041876,374.0,NaN,4.716,31.500002,256.7,10 / 14,452028,2020-03-19 20:30:55:868
-16.639702,-13.52724,3.371036,0.0,49.847195,24.041876,374.0,NaN,4.716,31.500002,256.7,10 / 14,452528,2020-03-19 20:30:56:368
-11.36767,-27.844566,-7.785944,0.0,49.847195,24.041876,374.0,NaN,4.716,31.500002,256.7,10 / 14,453029,2020-03-19 20:30:56:869
-4.975151,-9.988609,-1.225831,0.0,49.847195,24.041876,374.0,NaN,4.716,31.500002,256.7,10 / 14,453529,2020-03-19 20:30:57:369
-2.810793,-6.320692,-8.882488,0.0,49.847195,24.041876,374.0,NaN,4.716,31.500002,256.7,10 / 14,454029,2020-03-19 20:30:57:869
-3.337517,-8.03494,0.114922,0.0,49.847195,24.041876,374.0,NaN,4.716,31.500002,256.7,10 / 14,454528,2020-03-19 20:30:58:368
-3.05979,-2.806004,-1.556231,0.0,49.847195,24.041876,374.0,NaN,4.716,31.500002,256.7,10 / 14,455028,2020-03-19 20:30:58:868
-1.388637,-7.532158,-1.297657,0.0,49.847195,24.041876,374.0,NaN,4.716,31.500002,256.7,10 / 14,455528,2020-03-19 20:30:59:368
0.172383,-10.702082,-0.991199,0.0,49.847195,24.041876,374.0,NaN,4.716,31.500002,256.7,10 / 14,456029,2020-03-19 20:30:59:869
-10.122684,-18.602947,-3.830723,0.0,49.847195,24.041876,374.0,NaN,4.716,31.500002,256.7,10 / 14,456528,2020-03-19 20:31:00:368
-4.869806,-15.452178,-3.514688,0.0,49.847195,24.041876,374.0,NaN,4.716,31.500002,256.7,10 / 14,457028,2020-03-19 20:31:00:868
-1.307234,-8.796297,-5.142745,0.0,49.847195,24.041876,374.0,NaN,4.716,31.500002,256.7,10 / 14,457528,2020-03-19 20:31:01:368
0.54109,-10.175357,-1.795651,0.0,49.847195,24.041876,374.0,NaN,4.716,31.500002,256.7,10 / 14,458028,2020-03-19 20:31:01:868
-2.978387,-2.044648,2.06859,0.0,49.847195,24.041876,374.0,NaN,4.716,31.500002,256.7,10 / 14,458528,2020-03-19 20:31:02:368
-4.338293,-6.694188,1.331176,0.0,49.847195,24.041876,374.0,NaN,4.716,31.500002,256.7,10 / 14,459028,2020-03-19 20:31:02:868
-2.892196,-2.317587,3.763685,0.0,49.847195,24.041876,374.0,NaN,4.716,31.500002,256.7,10 / 14,459528,2020-03-19 20:31:03:368
-7.072471,-6.349423,-0.124498,0.0,49.847195,24.041876,374.0,NaN,4.716,31.500002,256.7,10 / 14,460028,2020-03-19 20:31:03:868
-8.346187,-10.879252,-4.903325,0.0,49.847195,24.041876,374.0,NaN,4.716,31.500002,256.7,10 / 14,460528,2020-03-19 20:31:04:368
-4.539406,5.12838,6.78038,0.0,49.847195,24.041876,374.0,NaN,4.716,31.500002,256.7,10 / 14,461028,2020-03-19 20:31:04:868
-7.943961,-11.899182,-3.596091,0.0,49.847195,24.041876,374.0,NaN,4.716,31.500002,256.7,10 / 14,461528,2020-03-19 20:31:05:368
-7.872135,-16.036364,-14.997279,0.0,49.847195,24.041876,374.0,NaN,4.716,31.500002,256.7,10 / 14,462028,2020-03-19 20:31:05:868
-4.43885,-7.551312,-2.149993,0.0,49.847195,24.041876,374.0,NaN,4.716,31.500002,256.7,10 / 14,462528,2020-03-19 20:31:06:368
-10.31901,-15.20797,-20.317196,0.0,49.847195,24.041876,374.0,NaN,4.716,31.500002,256.7,10 / 14,463028,2020-03-19 20:31:06:868
-3.189077,-7.513005,-2.303222,0.0,49.847195,24.041876,374.0,NaN,4.716,31.500002,256.7,10 / 14,463528,2020-03-19 20:31:07:368
-2.796427,-4.649539,1.958457,0.0,49.847195,24.041876,374.0,NaN,4.716,31.500002,256.7,10 / 14,464028,2020-03-19 20:31:07:868
-5.521029,-8.159439,-0.68953,0.0,49.847195,24.041876,374.0,NaN,4.716,31.500002,256.7,10 / 14,464529,2020-03-19 20:31:08:369
-11.449073,-10.496181,-3.615245,0.0,49.847195,24.041876,374.0,NaN,4.716,31.500002,256.7,10 / 14,465028,2020-03-19 20:31:08:868
0.967258,5.884948,10.630256,0.0,49.847195,24.041876,374.0,NaN,4.716,31.500002,256.7,10 / 14,465528,2020-03-19 20:31:09:368
-4.893748,-13.412318,-7.149086,0.0,49.847195,24.041876,374.0,NaN,4.716,31.500002,256.7,10 / 14,466028,2020-03-19 20:31:09:868
-7.096413,-13.158532,-9.964667,0.0,49.847195,24.041876,374.0,NaN,4.716,31.500002,256.7,10 / 14,466528,2020-03-19 20:31:10:368
-9.203311,-13.565547,2.705448,0.0,49.847195,24.041876,374.0,NaN,4.716,31.500002,256.7,10 / 14,467028,2020-03-19 20:31:10:868
-4.707,-12.339716,2.595315,0.0,49.847195,24.041876,374.0,NaN,4.716,31.500002,256.7,10 / 14,467529,2020-03-19 20:31:11:369
-0.392649,-10.979809,-0.335188,0.0,49.847195,24.041876,374.0,NaN,4.716,31.500002,256.7,10 / 14,468029,2020-03-19 20:31:11:869
0.426168,0.057461,-1.541866,0.0,49.847195,24.041876,374.0,NaN,4.716,31.500002,256.7,10 / 14,468529,2020-03-19 20:31:12:369
-3.05979,-5.597643,0.713472,0.0,49.847195,24.041876,374.0,NaN,4.716,31.500002,256.7,10 / 14,469028,2020-03-19 20:31:12:868
-0.35913,-3.739743,3.107674,0.0,49.847195,24.041876,374.0,NaN,4.716,31.500002,256.7,10 / 14,469528,2020-03-19 20:31:13:368
-3.203442,-5.21936,-0.325611,0.0,49.847195,24.041876,374.0,NaN,4.716,31.500002,256.7,10 / 14,470028,2020-03-19 20:31:13:868
-2.863465,-8.418014,0.718261,0.0,49.847195,24.041876,374.0,NaN,4.716,31.500002,256.7,10 / 14,470528,2020-03-19 20:31:14:368
-9.471462,-19.488802,-2.935291,0.0,49.847195,24.041876,374.0,NaN,4.716,31.500002,256.7,10 / 14,471028,2020-03-19 20:31:14:868
-9.361329,-13.962984,2.312799,0.0,49.847195,24.041876,374.0,NaN,4.716,31.500002,256.7,10 / 14,471529,2020-03-19 20:31:15:369
-26.676195,-21.40895,-6.373365,0.0,49.847195,24.041876,374.0,NaN,4.716,31.500002,256.7,10 / 14,472029,2020-03-19 20:31:15:869
-0.770933,-10.208876,0.335188,0.0,49.847195,24.041876,374.0,NaN,4.716,31.500002,256.7,10 / 14,472529,2020-03-19 20:31:16:369
-3.44765,-20.00595,3.524265,0.0,49.847195,24.041876,374.0,NaN,4.716,31.500002,256.7,10 / 14,473029,2020-03-19 20:31:16:869
-0.756568,-10.840945,-0.962469,0.0,49.847195,24.041876,374.0,NaN,4.716,31.500002,256.7,10 / 14,473529,2020-03-19 20:31:17:369
-7.541735,-8.705317,-12.98615,0.0,49.847195,24.041876,374.0,NaN,4.716,31.500002,256.7,10 / 14,474028,2020-03-19 20:31:17:868
-5.343858,-8.09719,-1.422156,0.0,49.847195,24.041876,374.0,NaN,4.716,31.500002,256.7,10 / 14,474528,2020-03-19 20:31:18:368
-1.154005,-2.533065,2.499547,0.0,49.847195,24.041876,374.0,NaN,4.716,31.500002,256.7,10 / 14,475028,2020-03-19 20:31:18:868
-5.468356,-5.645528,0.339977,0.0,49.847195,24.041876,374.0,NaN,4.716,31.500002,256.7,10 / 14,475528,2020-03-19 20:31:19:368
-6.880935,-12.124237,-1.158794,0.0,49.847195,24.041876,374.0,NaN,4.716,31.500002,256.7,10 / 14,476028,2020-03-19 20:31:19:868
3.184288,-6.885724,20.09693,0.0,49.847195,24.041876,374.0,NaN,4.716,31.500002,256.7,10 / 14,476528,2020-03-19 20:31:20:368
-5.343858,-11.961432,-1.838747,0.0,49.847195,24.041876,374.0,NaN,4.716,31.500002,256.7,0 / 0,477028,2020-03-19 20:31:20:868
-8.595184,-9.677363,-6.842628,0.0,49.847195,24.041876,374.0,NaN,4.716,31.500002,256.7,0 / 1,477529,2020-03-19 20:31:21:369
-0.986411,-9.179369,-1.201889,0.0,49.847195,24.041876,374.0,NaN,4.716,31.500002,256.7,0 / 1,478028,2020-03-19 20:31:21:868
-7.795521,-14.250289,-17.24783,0.0,49.847195,24.041876,374.0,NaN,4.716,31.500002,256.7,0 / 7,478528,2020-03-19 20:31:22:368
-0.392649,-9.801862,1.063026,0.0,49.847195,24.041876,374.0,NaN,4.716,31.500002,256.7,0 / 7,479028,2020-03-19 20:31:22:868
-2.571372,-3.485957,-8.590396,0.0,49.847195,24.041876,374.0,NaN,4.716,31.500002,256.7,14 / 14,479528,2020-03-19 20:31:23:368
-4.223372,-6.402095,-3.730166,0.0,49.847195,24.041876,374.0,NaN,4.716,31.500002,256.7,14 / 14,480028,2020-03-19 20:31:23:868
-2.600103,-1.221043,3.112462,0.0,49.846455,24.041216,391.0,NaN,4.824,26.0,0.0,10 / 18,480528,2020-03-19 20:31:24:368
-6.789956,-5.262455,0.373495,0.0,49.846455,24.041216,391.0,NaN,4.824,26.0,0.0,10 / 18,481028,2020-03-19 20:31:24:868
-11.45865,-17.046717,-3.634398,0.0,49.846455,24.041216,391.0,NaN,4.824,26.0,0.0,10 / 18,481529,2020-03-19 20:31:25:369
4.960786,-2.394202,10.601525,0.0,49.846455,24.041216,391.0,NaN,4.824,26.0,0.0,10 / 18,482029,2020-03-19 20:31:25:869
-3.500323,-11.616667,-2.030283,0.0,49.846455,24.041216,391.0,NaN,4.824,26.0,0.0,10 / 18,482529,2020-03-19 20:31:26:369
-10.783484,-12.938266,-8.09719,0.0,49.846455,24.041216,391.0,NaN,4.824,26.0,0.0,10 / 18,483029,2020-03-19 20:31:26:869
-6.363788,-11.750742,-4.750096,0.0,49.846455,24.041216,391.0,NaN,4.824,26.0,0.0,10 / 18,483529,2020-03-19 20:31:27:369
-11.712435,-9.950302,-8.485051,0.0,49.846455,24.041216,391.0,NaN,4.824,26.0,0.0,10 / 18,484029,2020-03-19 20:31:27:869
-2.327164,-7.560889,-3.093309,0.0,49.846455,24.041216,391.0,NaN,4.824,26.0,0.0,10 / 18,484529,2020-03-19 20:31:28:369
-3.184288,-1.273715,3.696648,0.0,49.846455,24.041216,391.0,NaN,4.824,26.0,0.0,10 / 18,485029,2020-03-19 20:31:28:869
-6.406883,-5.813122,-1.881842,0.0,49.846455,24.041216,391.0,NaN,4.824,26.0,0.0,10 / 18,485529,2020-03-19 20:31:29:369
-7.120356,-14.369999,-6.124367,0.0,49.846455,24.041216,391.0,NaN,4.824,26.0,0.0,10 / 18,486029,2020-03-19 20:31:29:869
-1.436521,-10.132261,16.381128,0.0,49.846455,24.041216,391.0,NaN,4.824,26.0,0.0,10 / 18,486529,2020-03-19 20:31:30:369
-7.541735,-15.605407,-1.393425,0.0,49.846455,24.041216,391.0,NaN,4.824,26.0,0.0,10 / 18,487029,2020-03-19 20:31:30:869
-1.599327,-4.371812,6.186618,0.0,49.846455,24.041216,391.0,NaN,4.824,26.0,0.0,10 / 18,487528,2020-03-19 20:31:31:368
-7.575254,-15.471332,-2.825158,0.0,49.846455,24.041216,391.0,NaN,4.824,26.0,0.0,10 / 18,488029,2020-03-19 20:31:31:869
-6.373365,-7.383718,-4.683058,0.0,49.846455,24.041216,391.0,NaN,4.824,26.0,0.0,10 / 18,488528,2020-03-19 20:31:32:368
-0.402226,-9.294291,-4.649539,0.0,49.846455,24.041216,391.0,NaN,4.824,26.0,0.0,10 / 18,489028,2020-03-19 20:31:32:868
-3.366248,1.623269,3.337517,0.0,49.846455,24.041216,391.0,NaN,4.824,26.0,0.0,10 / 18,489528,2020-03-19 20:31:33:368
-0.799663,-7.982268,-1.872266,0.0,49.846455,24.041216,391.0,NaN,4.824,26.0,0.0,10 / 18,490029,2020-03-19 20:31:33:869
-3.888183,-4.232949,1.623269,0.0,49.846455,24.041216,391.0,NaN,4.824,26.0,0.0,10 / 18,490528,2020-03-19 20:31:34:368
-8.073248,-7.675811,-2.116474,0.0,49.846455,24.041216,391.0,NaN,4.824,26.0,0.0,10 / 18,491028,2020-03-19 20:31:34:868
-9.931149,-16.529568,-1.374272,0.0,49.846455,24.041216,391.0,NaN,4.824,26.0,0.0,10 / 18,491529,2020-03-19 20:31:35:369
-4.79798,2.178724,1.374272,0.0,49.846455,24.041216,391.0,NaN,4.824,26.0,0.0,10 / 18,492029,2020-03-19 20:31:35:869
-4.606444,-8.868123,-0.296881,0.0,49.846455,24.041216,391.0,NaN,4.824,26.0,0.0,10 / 18,492529,2020-03-19 20:31:36:369
-3.821146,-10.635044,3.734955,0.0,49.846455,24.041216,391.0,NaN,4.824,26.0,0.0,10 / 18,493029,2020-03-19 20:31:36:869
-20.451271,-13.814544,1.067814,0.0,49.846455,24.041216,391.0,NaN,4.824,26.0,0.0,10 / 18,493529,2020-03-19 20:31:37:369
-6.181829,-8.623915,10.496181,0.0,49.846455,24.041216,391.0,NaN,4.824,26.0,0.0,10 / 18,494029,2020-03-19 20:31:37:869
-4.884171,-11.702858,0.148441,0.0,49.846455,24.041216,391.0,NaN,4.824,26.0,0.0,10 / 18,494528,2020-03-19 20:31:38:368
-5.544971,-6.320692,-6.833051,0.0,49.846455,24.041216,391.0,NaN,4.824,26.0,0.0,10 / 18,495028,2020-03-19 20:31:38:868
-2.442086,-7.963114,-0.186748,0.0,49.846455,24.041216,391.0,NaN,4.824,26.0,0.0,10 / 18,495528,2020-03-19 20:31:39:368
-2.868254,0.627281,4.826711,0.0,49.846455,24.041216,391.0,NaN,4.824,26.0,0.0,10 / 18,496028,2020-03-19 20:31:39:868
-4.908113,-6.263232,-0.651223,0.0,49.846455,24.041216,391.0,NaN,4.824,26.0,0.0,10 / 18,496528,2020-03-19 20:31:40:368
-9.581595,-16.218323,-2.121263,0.0,49.846455,24.041216,391.0,NaN,4.824,26.0,0.0,10 / 18,497029,2020-03-19 20:31:40:869
1.810017,1.685518,17.142485,0.0,49.846455,24.041216,391.0,NaN,4.824,26.0,0.0,10 / 18,497529,2020-03-19 20:31:41:369
-1.632845,-10.553641,-1.556231,0.0,49.846455,24.041216,391.0,NaN,4.824,26.0,0.0,10 / 18,498029,2020-03-19 20:31:41:869
-3.519476,-6.363788,15.581465,0.0,49.846455,24.041216,391.0,NaN,4.824,26.0,0.0,10 / 18,498529,2020-03-19 20:31:42:369
-4.400542,-15.193604,-3.227384,0.0,49.846455,24.041216,391.0,NaN,4.824,26.0,0.0,10 / 18,499028,2020-03-19 20:31:42:868
-4.43885,-6.29675,-3.08852,0.0,49.846455,24.041216,391.0,NaN,4.824,26.0,0.0,10 / 18,499528,2020-03-19 20:31:43:368
0.933739,-9.548077,-4.165911,0.0,49.846455,24.041216,391.0,NaN,4.824,26.0,0.0,10 / 18,500028,2020-03-19 20:31:43:868
-2.217031,-0.497994,1.685518,0.0,49.846455,24.041216,391.0,NaN,4.824,26.0,0.0,10 / 18,500528,2020-03-19 20:31:44:368
-1.273715,-7.331045,0.311246,0.0,49.846455,24.041216,391.0,NaN,4.824,26.0,0.0,10 / 18,501028,2020-03-19 20:31:44:868
-3.169923,-5.90889,1.924938,0.0,49.846455,24.041216,391.0,NaN,4.824,26.0,0.0,10 / 18,501528,2020-03-19 20:31:45:368
-2.647987,-10.472239,1.762132,0.0,49.846455,24.041216,391.0,NaN,4.824,26.0,0.0,10 / 18,502028,2020-03-19 20:31:45:868
-13.278243,-15.279796,-0.148441,0.0,49.846455,24.041216,391.0,NaN,4.824,26.0,0.0,10 / 18,502528,2020-03-19 20:31:46:368
-4.568136,-5.588066,0.703895,0.0,49.846455,24.041216,391.0,NaN,4.824,26.0,0.0,10 / 18,503028,2020-03-19 20:31:46:868
-16.864758,-13.785813,6.823475,0.0,49.846455,24.041216,391.0,NaN,4.824,26.0,0.0,10 / 18,503528,2020-03-19 20:31:47:368
-20.910957,-16.07467,-18.674774,0.0,49.846455,24.041216,391.0,NaN,4.824,26.0,0.0,10 / 18,504028,2020-03-19 20:31:47:868
-1.307234,-11.511322,-2.829946,0.0,49.846455,24.041216,391.0,NaN,4.824,26.0,0.0,10 / 18,504528,2020-03-19 20:31:48:368
-2.743755,-2.250549,2.245761,0.0,49.846455,24.041216,391.0,NaN,4.824,26.0,0.0,10 / 18,505028,2020-03-19 20:31:48:868
-8.566454,-5.171476,-0.670376,0.0,49.846455,24.041216,391.0,NaN,4.824,26.0,0.0,10 / 18,505528,2020-03-19 20:31:49:368
-13.872005,-12.923901,3.256114,0.0,49.846455,24.041216,391.0,NaN,4.824,26.0,0.0,10 / 18,506028,2020-03-19 20:31:49:868
4.960786,-5.463568,33.605015,0.0,49.846455,24.041216,391.0,NaN,4.824,26.0,0.0,10 / 18,506529,2020-03-19 20:31:50:369
-16.156073,-12.133814,2.561796,0.0,49.846455,24.041216,391.0,NaN,4.824,26.0,0.0,10 / 18,507029,2020-03-19 20:31:50:869
-8.810662,-6.100425,3.093309,0.0,49.846455,24.041216,391.0,NaN,4.824,26.0,0.0,10 / 18,507529,2020-03-19 20:31:51:369
-3.725378,-13.043611,-5.056554,0.0,49.846455,24.041216,391.0,NaN,4.824,26.0,0.0,10 / 18,508028,2020-03-19 20:31:51:868
-9.074024,-13.445837,-13.263878,0.0,49.846455,24.041216,391.0,NaN,4.824,26.0,0.0,10 / 18,508528,2020-03-19 20:31:52:368
