ACCELEROMETER X (m/s²),ACCELEROMETER Y (m/s²),ACCELEROMETER Z (m/s²),PROXIMITY (m),LOCATION Latitude : ,LOCATION Longitude : ,LOCATION Altitude ( m),LOCATION Altitude-google ( m),LOCATION Speed ( Kmh),LOCATION Accuracy ( m),LOCATION ORIENTATION (°),Satellites in range,Time since start in ms ,YYYY-MO-DD HH-MI-SS_SSS
-0.560243,-0.11971,10.376471,8.0,,,,NaN,,,,0 / 6,28,2020-03-15 13:02:43:428
-0.167594,3.169923,7.417237,8.0,49.838657,24.03096,319.0,NaN,3.816,17.0,79.0,7 / 7,528,2020-03-15 13:02:43:928
3.15077,2.930503,13.024457,8.0,49.838657,24.03096,319.0,NaN,3.816,17.0,79.0,7 / 7,1028,2020-03-15 13:02:44:428
6.574478,-0.713472,5.631162,8.0,49.838657,24.03096,319.0,NaN,3.816,17.0,79.0,7 / 7,1528,2020-03-15 13:02:44:928
0.536301,-6.900089,-1.264138,0.0,49.838657,24.03096,319.0,NaN,3.816,17.0,79.0,7 / 7,2027,2020-03-15 13:02:45:427
14.00608,0.751779,2.801216,0.0,49.838657,24.03096,319.0,NaN,3.816,17.0,79.0,7 / 7,2527,2020-03-15 13:02:45:927
12.598289,-0.632069,4.486734,0.0,49.838657,24.03096,319.0,NaN,3.816,17.0,79.0,7 / 7,3027,2020-03-15 13:02:46:427
0.967258,-1.40779,0.21069,0.0,49.838657,24.03096,319.0,NaN,3.816,17.0,79.0,7 / 7,3527,2020-03-15 13:02:46:927
8.274361,-1.412579,3.5099,0.0,49.838657,24.03096,319.0,NaN,3.816,17.0,79.0,7 / 7,4028,2020-03-15 13:02:47:428
9.457097,-7.642292,5.99987,0.0,49.838657,24.03096,319.0,NaN,3.816,17.0,79.0,7 / 7,4527,2020-03-15 13:02:47:927
8.437167,-2.647987,5.702989,0.0,49.838657,24.03096,319.0,NaN,3.816,17.0,79.0,7 / 7,5027,2020-03-15 13:02:48:427
12.842498,2.135628,3.476381,0.0,49.838657,24.03096,319.0,NaN,3.816,17.0,79.0,7 / 7,5527,2020-03-15 13:02:48:927
9.500193,-0.325611,2.092532,0.0,49.838657,24.03096,319.0,NaN,3.816,17.0,79.0,7 / 7,6027,2020-03-15 13:02:49:427
12.751518,2.987964,4.304775,0.0,49.838657,24.03096,319.0,NaN,3.816,17.0,79.0,7 / 7,6527,2020-03-15 13:02:49:927
5.094861,-2.724601,0.737414,0.0,49.838657,24.03096,319.0,NaN,3.816,17.0,79.0,7 / 7,7027,2020-03-15 13:02:50:427
5.482722,-1.484405,0.268151,0.0,49.838657,24.03096,319.0,NaN,3.816,17.0,79.0,7 / 7,7527,2020-03-15 13:02:50:927
5.774815,0.770933,3.236961,0.0,49.838657,24.03096,319.0,NaN,3.816,17.0,79.0,7 / 7,8027,2020-03-15 13:02:51:427
7.575254,-2.647987,9.423578,0.0,49.838657,24.03096,319.0,NaN,3.816,17.0,79.0,7 / 7,8528,2020-03-15 13:02:51:928
12.914324,0.952892,1.556231,0.0,49.838657,24.03096,319.0,NaN,3.816,17.0,79.0,7 / 7,9027,2020-03-15 13:02:52:427
12.243947,-4.419696,-0.560243,0.0,49.838657,24.03096,319.0,NaN,3.816,17.0,79.0,7 / 7,9528,2020-03-15 13:02:52:928
3.519477,3.08852,9.725247,8.0,49.838657,24.03096,319.0,NaN,3.816,17.0,79.0,7 / 7,10027,2020-03-15 13:02:53:427
-0.588974,4.443639,3.265691,8.0,49.838657,24.03096,319.0,NaN,3.816,17.0,79.0,7 / 7,10527,2020-03-15 13:02:53:927
0.430956,2.600103,8.858546,8.0,49.838657,24.03096,319.0,NaN,3.816,17.0,79.0,7 / 7,11027,2020-03-15 13:02:54:427
0.081403,3.964798,5.204995,8.0,49.838657,24.03096,319.0,NaN,3.816,17.0,79.0,7 / 7,11528,2020-03-15 13:02:54:928
-0.258574,2.1883,7.244855,8.0,49.838657,24.03096,319.0,NaN,3.816,17.0,79.0,7 / 7,12027,2020-03-15 13:02:55:427
2.657564,4.678271,11.659762,8.0,49.838657,24.03096,319.0,NaN,3.816,17.0,79.0,7 / 7,12527,2020-03-15 13:02:55:927
0.972046,4.745308,10.012551,8.0,49.838657,24.03096,319.0,NaN,3.816,17.0,79.0,7 / 7,13027,2020-03-15 13:02:56:427
1.13964,3.5099,9.715671,8.0,49.838657,24.03096,319.0,NaN,3.816,17.0,79.0,7 / 7,13528,2020-03-15 13:02:56:928
4.074931,1.685518,1.757344,8.0,49.838657,24.03096,319.0,NaN,3.816,17.0,79.0,7 / 7,14027,2020-03-15 13:02:57:427
9.011775,-3.960009,3.993528,0.0,49.838657,24.03096,319.0,NaN,3.816,17.0,79.0,7 / 7,14527,2020-03-15 13:02:57:927
6.564901,-5.592855,6.789956,0.0,49.838657,24.03096,319.0,NaN,3.816,17.0,79.0,7 / 7,15027,2020-03-15 13:02:58:427
8.66701,-3.663128,6.627151,0.0,49.838657,24.03096,319.0,NaN,3.816,17.0,79.0,7 / 7,15528,2020-03-15 13:02:58:928
14.053964,-0.292093,4.19943,0.0,49.838657,24.03096,319.0,NaN,3.816,17.0,79.0,7 / 7,16027,2020-03-15 13:02:59:427
15.562311,-0.694318,-1.244985,0.0,49.838657,24.03096,319.0,NaN,3.816,17.0,79.0,7 / 7,16527,2020-03-15 13:02:59:927
11.444284,0.948104,3.141193,0.0,49.838657,24.03096,319.0,NaN,3.816,17.0,79.0,7 / 7,17028,2020-03-15 13:03:00:428
10.28549,-1.106121,1.565808,0.0,49.838657,24.03096,319.0,NaN,3.816,17.0,79.0,7 / 7,17527,2020-03-15 13:03:00:927
5.750873,0.268151,2.987964,0.0,49.838657,24.03096,319.0,NaN,3.816,17.0,79.0,7 / 7,18027,2020-03-15 13:03:01:427
13.460202,-3.232172,4.76925,0.0,49.838657,24.03096,319.0,NaN,3.816,17.0,79.0,7 / 7,18528,2020-03-15 13:03:01:928
6.110003,1.225831,2.868254,0.0,49.838657,24.03096,319.0,NaN,3.816,17.0,79.0,7 / 7,19027,2020-03-15 13:03:02:427
2.102109,-0.885855,3.485958,0.0,49.838657,24.03096,319.0,NaN,3.816,17.0,79.0,7 / 7,19527,2020-03-15 13:03:02:927
8.245631,-0.952892,4.103662,0.0,49.838657,24.03096,319.0,NaN,3.816,17.0,79.0,7 / 7,20027,2020-03-15 13:03:03:427
8.892065,-4.596867,5.535394,0.0,49.838657,24.03096,319.0,NaN,3.816,17.0,79.0,7 / 7,20528,2020-03-15 13:03:03:928
3.562572,-5.837064,2.446874,0.0,49.838657,24.03096,319.0,NaN,3.816,17.0,79.0,7 / 7,21027,2020-03-15 13:03:04:427
13.010092,-0.68953,3.883395,0.0,49.838657,24.03096,319.0,NaN,3.816,17.0,79.0,7 / 7,21528,2020-03-15 13:03:04:928
10.931925,-2.796427,3.332729,0.0,49.838657,24.03096,319.0,NaN,3.816,17.0,79.0,7 / 7,22028,2020-03-15 13:03:05:428
6.919243,1.182736,3.433285,0.0,49.838657,24.03096,319.0,NaN,3.816,17.0,79.0,7 / 7,22527,2020-03-15 13:03:05:927
4.156334,0.105345,2.284068,0.0,49.838657,24.03096,319.0,NaN,3.816,17.0,79.0,7 / 7,23028,2020-03-15 13:03:06:428
5.444415,0.593762,3.423709,0.0,49.838657,24.03096,319.0,NaN,3.816,17.0,79.0,7 / 7,23527,2020-03-15 13:03:06:927
7.972692,1.130063,3.859453,0.0,49.838657,24.03096,319.0,NaN,3.816,17.0,79.0,7 / 7,24027,2020-03-15 13:03:07:427
7.833828,-0.54109,7.886501,0.0,49.838657,24.03096,319.0,NaN,3.816,17.0,79.0,7 / 7,24528,2020-03-15 13:03:07:928
12.588713,-0.100556,4.477157,0.0,49.838657,24.03096,319.0,NaN,3.816,17.0,79.0,7 / 7,25027,2020-03-15 13:03:08:427
10.405201,-0.995988,2.422932,0.0,49.838657,24.03096,319.0,NaN,3.816,17.0,79.0,7 / 7,25527,2020-03-15 13:03:08:927
5.889736,0.737414,2.738967,0.0,49.838657,24.03096,319.0,NaN,3.816,17.0,79.0,7 / 7,26028,2020-03-15 13:03:09:428
4.750097,0.588974,3.260903,0.0,49.838657,24.03096,319.0,NaN,3.816,17.0,79.0,7 / 7,26527,2020-03-15 13:03:09:927
8.791509,-0.076614,5.822699,0.0,49.838657,24.03096,319.0,NaN,3.816,17.0,79.0,7 / 7,27028,2020-03-15 13:03:10:428
8.164228,-3.754108,4.395755,0.0,49.838657,24.03096,319.0,NaN,3.816,17.0,79.0,7 / 7,27528,2020-03-15 13:03:10:928
10.180145,-1.848324,6.335058,0.0,49.838657,24.03096,319.0,NaN,3.816,17.0,79.0,7 / 7,28027,2020-03-15 13:03:11:427
6.971915,-1.067814,6.47871,0.0,49.838657,24.03096,319.0,NaN,3.816,17.0,79.0,7 / 7,28528,2020-03-15 13:03:11:928
16.950949,1.68073,2.643199,0.0,49.838657,24.03096,319.0,NaN,3.816,17.0,79.0,7 / 7,29027,2020-03-15 13:03:12:427
10.261548,0.521936,3.576938,0.0,49.838657,24.03096,319.0,NaN,3.816,17.0,79.0,7 / 7,29527,2020-03-15 13:03:12:927
3.53863,-1.268927,0.612916,0.0,49.838657,24.03096,319.0,NaN,3.816,17.0,79.0,7 / 7,30027,2020-03-15 13:03:13:427
7.067683,-2.06859,2.312799,0.0,49.838657,24.03096,319.0,NaN,3.816,17.0,79.0,7 / 7,30527,2020-03-15 13:03:13:927
10.793061,-6.095637,5.688624,0.0,49.838657,24.03096,319.0,NaN,3.816,17.0,79.0,7 / 7,31027,2020-03-15 13:03:14:427
8.039729,-3.873818,5.961562,0.0,49.838657,24.03096,319.0,NaN,3.816,17.0,79.0,7 / 7,31528,2020-03-15 13:03:14:928
13.426683,2.126051,2.1883,0.0,49.838657,24.03096,319.0,NaN,3.816,17.0,79.0,7 / 7,32028,2020-03-15 13:03:15:428
11.425131,-1.058237,1.25935,0.0,49.838657,24.03096,319.0,NaN,3.816,17.0,79.0,7 / 7,32528,2020-03-15 13:03:15:928
6.234502,0.909797,3.20823,0.0,49.838657,24.03096,319.0,NaN,3.816,17.0,79.0,7 / 7,33027,2020-03-15 13:03:16:427
14.470555,-2.360683,2.149993,0.0,49.838657,24.03096,319.0,NaN,3.816,17.0,79.0,7 / 7,33527,2020-03-15 13:03:16:927
6.402096,0.158017,3.371036,0.0,49.838657,24.03096,319.0,NaN,3.816,17.0,79.0,7 / 7,34028,2020-03-15 13:03:17:428
6.114791,1.158794,3.457227,0.0,49.838657,24.03096,319.0,NaN,3.816,17.0,79.0,7 / 7,34527,2020-03-15 13:03:17:927
11.200075,-1.810016,6.574478,0.0,49.838657,24.03096,319.0,NaN,3.816,17.0,79.0,7 / 7,35028,2020-03-15 13:03:18:428
12.943054,1.651999,3.442862,0.0,49.838657,24.03096,319.0,NaN,3.816,17.0,79.0,7 / 7,35527,2020-03-15 13:03:18:927
14.518439,-0.373495,-0.287304,0.0,49.838657,24.03096,319.0,NaN,3.816,17.0,79.0,7 / 7,36027,2020-03-15 13:03:19:427
8.082825,1.503559,2.207454,0.0,49.838657,24.03096,319.0,NaN,3.816,17.0,79.0,7 / 7,36528,2020-03-15 13:03:19:928
4.510676,-0.526724,1.924938,0.0,49.838657,24.03096,319.0,NaN,3.816,17.0,79.0,7 / 7,37027,2020-03-15 13:03:20:427
7.211336,-0.469264,2.762909,0.0,49.838657,24.03096,319.0,NaN,3.816,17.0,79.0,7 / 7,37527,2020-03-15 13:03:20:927
8.42759,-6.909666,4.218584,0.0,49.838657,24.03096,319.0,NaN,3.816,17.0,79.0,7 / 7,38028,2020-03-15 13:03:21:428
8.508993,-0.057461,3.902549,0.0,49.838657,24.03096,319.0,NaN,3.816,17.0,79.0,7 / 7,38527,2020-03-15 13:03:21:927
7.781156,-1.345541,7.73806,0.0,49.838657,24.03096,319.0,NaN,3.816,17.0,79.0,7 / 7,39028,2020-03-15 13:03:22:428
11.678916,-1.024718,7.431602,0.0,49.838657,24.03096,319.0,NaN,3.816,17.0,79.0,7 / 7,39527,2020-03-15 13:03:22:927
11.353305,1.412579,4.601656,0.0,49.838657,24.03096,319.0,NaN,3.816,17.0,79.0,7 / 7,40027,2020-03-15 13:03:23:427
7.52737,-1.900996,1.651999,0.0,49.838657,24.03096,319.0,NaN,3.816,17.0,79.0,7 / 7,40528,2020-03-15 13:03:23:928
5.228937,-1.671153,2.331953,0.0,49.838657,24.03096,319.0,NaN,3.816,17.0,79.0,7 / 7,41027,2020-03-15 13:03:24:427
10.534488,-1.086968,1.015142,0.0,49.838657,24.03096,319.0,NaN,3.816,17.0,79.0,7 / 7,41528,2020-03-15 13:03:24:928
5.99987,-3.768473,2.710236,0.0,49.838657,24.03096,319.0,NaN,3.816,17.0,79.0,7 / 7,42027,2020-03-15 13:03:25:427
13.354857,-0.057461,4.084508,0.0,49.838657,24.03096,319.0,NaN,3.816,17.0,79.0,7 / 7,42527,2020-03-15 13:03:25:927
4.055778,-5.683835,2.121263,0.0,49.838657,24.03096,319.0,NaN,3.816,17.0,79.0,7 / 7,43028,2020-03-15 13:03:26:428
11.597513,0.052672,2.715025,0.0,49.838657,24.03096,319.0,NaN,3.816,17.0,79.0,7 / 7,43528,2020-03-15 13:03:26:928
10.764331,-0.842759,2.078167,0.0,49.838657,24.03096,319.0,NaN,3.816,17.0,79.0,7 / 7,44027,2020-03-15 13:03:27:427
3.878607,-0.746991,3.083732,0.0,49.838657,24.03096,319.0,NaN,3.816,17.0,79.0,7 / 7,44527,2020-03-15 13:03:27:927
6.382942,0.938527,3.08852,0.0,49.838657,24.03096,319.0,NaN,3.816,17.0,79.0,7 / 7,45027,2020-03-15 13:03:28:427
9.466674,0.162806,6.50744,0.0,49.838657,24.03096,319.0,NaN,3.816,17.0,79.0,7 / 7,45528,2020-03-15 13:03:28:928
8.432379,-0.766144,7.28795,0.0,49.838657,24.03096,319.0,NaN,3.816,17.0,79.0,7 / 7,46028,2020-03-15 13:03:29:428
17.372328,2.94008,-0.368707,0.0,49.838657,24.03096,319.0,NaN,3.816,17.0,79.0,7 / 7,46528,2020-03-15 13:03:29:928
11.583148,2.37026,5.444415,0.0,49.838657,24.03096,319.0,NaN,3.816,17.0,79.0,7 / 7,47027,2020-03-15 13:03:30:427
15.519216,-0.775721,2.834735,0.0,49.838657,24.03096,319.0,NaN,3.816,17.0,79.0,7 / 7,47527,2020-03-15 13:03:30:927
10.175357,1.771709,2.877831,0.0,49.838657,24.03096,319.0,NaN,3.816,17.0,79.0,7 / 7,48027,2020-03-15 13:03:31:427
5.104438,-2.001553,1.508347,0.0,49.838657,24.03096,319.0,NaN,3.816,17.0,79.0,7 / 7,48528,2020-03-15 13:03:31:928
5.554548,-1.335964,0.641646,0.0,49.838657,24.03096,319.0,NaN,3.816,17.0,79.0,7 / 7,49028,2020-03-15 13:03:32:428
7.680599,0.972046,2.504335,0.0,49.838657,24.03096,319.0,NaN,3.816,17.0,79.0,7 / 7,49528,2020-03-15 13:03:32:928
6.110003,-1.762132,8.470686,0.0,49.838657,24.03096,319.0,NaN,3.816,17.0,79.0,7 / 7,50028,2020-03-15 13:03:33:428
11.659762,1.04866,6.962339,0.0,49.838657,24.03096,319.0,NaN,3.816,17.0,79.0,7 / 7,50528,2020-03-15 13:03:33:928
14.245501,-0.100556,0.335188,0.0,49.838657,24.03096,319.0,NaN,3.816,17.0,79.0,7 / 7,51028,2020-03-15 13:03:34:428
7.105991,1.719037,3.72059,0.0,49.838657,24.03096,319.0,NaN,3.816,17.0,79.0,7 / 7,51527,2020-03-15 13:03:34:927
3.758897,-0.316035,3.145981,0.0,49.838657,24.03096,319.0,NaN,3.816,17.0,79.0,7 / 7,52027,2020-03-15 13:03:35:427
6.732496,0.727837,2.671929,0.0,49.838657,24.03096,319.0,NaN,3.816,17.0,79.0,7 / 7,52527,2020-03-15 13:03:35:927
2.614468,-0.033519,3.744532,0.0,49.838657,24.03096,319.0,NaN,3.816,17.0,79.0,7 / 7,53027,2020-03-15 13:03:36:427
9.169792,0.54109,4.568137,0.0,49.838657,24.03096,319.0,NaN,3.816,17.0,79.0,7 / 7,53527,2020-03-15 13:03:36:927
7.264008,-2.528277,10.007763,0.0,49.838657,24.03096,319.0,NaN,3.816,17.0,79.0,7 / 7,54028,2020-03-15 13:03:37:428
14.082694,0.047884,8.350976,0.0,49.838657,24.03096,319.0,NaN,3.816,17.0,79.0,7 / 7,54528,2020-03-15 13:03:37:928
11.362882,1.029507,4.759673,0.0,49.838657,24.03096,319.0,NaN,3.816,17.0,79.0,7 / 7,55028,2020-03-15 13:03:38:428
6.143522,-2.059013,1.628057,0.0,49.838657,24.03096,319.0,NaN,3.816,17.0,79.0,7 / 7,55528,2020-03-15 13:03:38:928
4.793192,-1.82917,2.025495,0.0,49.838657,24.03096,319.0,NaN,3.816,17.0,79.0,7 / 7,56028,2020-03-15 13:03:39:428
9.433155,-0.565032,2.288857,0.0,49.838657,24.03096,319.0,NaN,3.816,17.0,79.0,7 / 7,56528,2020-03-15 13:03:39:928
8.978256,-0.90022,6.885724,0.0,49.838657,24.03096,319.0,NaN,3.816,17.0,79.0,7 / 7,57027,2020-03-15 13:03:40:427
13.096283,3.366248,4.673482,0.0,49.838657,24.03096,319.0,NaN,3.816,17.0,79.0,7 / 7,57528,2020-03-15 13:03:40:928
11.09473,-1.503559,5.808334,0.0,49.838657,24.03096,319.0,NaN,3.816,17.0,79.0,7 / 7,58028,2020-03-15 13:03:41:428
12.133814,0.924162,3.572149,0.0,49.838657,24.03096,319.0,NaN,3.816,17.0,79.0,7 / 7,58528,2020-03-15 13:03:41:928
3.284845,-1.968034,2.427721,0.0,49.838657,24.03096,319.0,NaN,3.816,17.0,79.0,7 / 7,59027,2020-03-15 13:03:42:427
7.718907,-0.54109,3.605668,0.0,49.838657,24.03096,319.0,NaN,3.816,17.0,79.0,7 / 7,59527,2020-03-15 13:03:42:927
8.633492,-2.930503,4.491523,0.0,49.838657,24.03096,319.0,NaN,3.816,17.0,79.0,7 / 7,60027,2020-03-15 13:03:43:427
12.50731,-2.06859,6.593632,0.0,49.838657,24.03096,319.0,NaN,3.816,17.0,79.0,7 / 7,60527,2020-03-15 13:03:43:927
10.951078,2.087744,4.745308,0.0,49.838657,24.03096,319.0,NaN,3.816,17.0,79.0,7 / 7,61028,2020-03-15 13:03:44:428
4.295198,-1.479617,2.236184,0.0,49.838657,24.03096,319.0,NaN,3.816,17.0,79.0,7 / 7,61528,2020-03-15 13:03:44:928
7.589619,-0.991199,1.043872,0.0,49.838657,24.03096,319.0,NaN,3.816,17.0,79.0,7 / 7,62028,2020-03-15 13:03:45:428
4.29041,0.550666,4.654328,0.0,49.838657,24.03096,319.0,NaN,3.816,17.0,79.0,7 / 7,62528,2020-03-15 13:03:45:928
8.42759,-0.464475,6.698977,0.0,49.838657,24.03096,319.0,NaN,3.816,17.0,79.0,7 / 7,63027,2020-03-15 13:03:46:427
7.953538,-1.043872,8.523358,0.0,49.838657,24.03096,319.0,NaN,3.816,17.0,79.0,7 / 7,63527,2020-03-15 13:03:46:927
14.518439,-0.593762,3.519477,0.0,49.838657,24.03096,319.0,NaN,3.816,17.0,79.0,7 / 7,64028,2020-03-15 13:03:47:428
11.113884,2.322376,4.572925,0.0,49.838657,24.03096,319.0,NaN,3.816,17.0,79.0,7 / 7,64528,2020-03-15 13:03:47:928
4.601656,-1.522712,2.082955,0.0,49.838657,24.03096,319.0,NaN,3.816,17.0,79.0,7 / 7,65027,2020-03-15 13:03:48:427
8.039729,-0.737414,2.595315,0.0,49.838657,24.03096,319.0,NaN,3.816,17.0,79.0,7 / 7,65528,2020-03-15 13:03:48:928
9.112331,-2.944868,4.850653,0.0,49.838657,24.03096,319.0,NaN,3.816,17.0,79.0,7 / 7,66028,2020-03-15 13:03:49:428
12.129025,-2.111686,5.161899,0.0,49.838657,24.03096,319.0,NaN,3.816,17.0,79.0,7 / 7,66528,2020-03-15 13:03:49:928
11.420342,1.527501,4.472369,0.0,49.838657,24.03096,319.0,NaN,3.816,17.0,79.0,7 / 7,67027,2020-03-15 13:03:50:427
5.477934,-2.164358,1.723825,0.0,49.838657,24.03096,319.0,NaN,3.816,17.0,79.0,7 / 7,67528,2020-03-15 13:03:50:928
6.6894,-0.076614,4.745308,0.0,49.838657,24.03096,319.0,NaN,3.816,17.0,79.0,0 / 0,68028,2020-03-15 13:03:51:428
8.044518,1.728614,3.825935,0.0,49.838657,24.03096,319.0,NaN,3.816,17.0,79.0,0 / 4,68528,2020-03-15 13:03:51:928
8.049306,-1.695095,3.327941,0.0,49.838657,24.03096,319.0,NaN,3.816,17.0,79.0,0 / 4,69027,2020-03-15 13:03:52:427
7.177817,-6.191406,7.800309,0.0,49.838657,24.03096,319.0,NaN,3.816,17.0,79.0,0 / 4,69527,2020-03-15 13:03:52:927
11.774684,0.833182,3.725378,0.0,49.838657,24.03096,319.0,NaN,3.816,17.0,79.0,0 / 6,70028,2020-03-15 13:03:53:428
6.512229,-1.546654,1.70946,0.0,49.838657,24.03096,319.0,NaN,3.816,17.0,79.0,0 / 6,70527,2020-03-15 13:03:53:927
7.153875,-2.437297,0.885855,0.0,49.838657,24.03096,319.0,NaN,3.816,17.0,79.0,0 / 11,71028,2020-03-15 13:03:54:428
10.429143,-5.688623,5.214572,0.0,49.838657,24.03096,319.0,NaN,3.816,17.0,79.0,0 / 11,71527,2020-03-15 13:03:54:927
6.584055,-4.49631,0.383072,0.0,49.838657,24.03096,319.0,NaN,3.816,17.0,79.0,0 / 12,72028,2020-03-15 13:03:55:428
12.962208,1.80044,3.711013,0.0,49.838005,24.03163,311.0,NaN,2.736,19.5,0.0,10 / 13,72527,2020-03-15 13:03:55:927
10.175357,-1.115698,8.341399,0.0,49.838005,24.03163,311.0,NaN,2.736,19.5,0.0,10 / 13,73027,2020-03-15 13:03:56:427
11.166556,3.026271,5.104438,0.0,49.838005,24.03163,311.0,NaN,2.736,19.5,0.0,10 / 13,73527,2020-03-15 13:03:56:927
8.293515,-1.771709,1.513135,0.0,49.838005,24.03163,311.0,NaN,2.736,19.5,0.0,10 / 13,74028,2020-03-15 13:03:57:428
5.6982,-1.47004,1.273715,0.0,49.838005,24.03163,311.0,NaN,2.736,19.5,0.0,10 / 13,74527,2020-03-15 13:03:57:927
10.472239,-1.867477,1.517924,0.0,49.838005,24.03163,311.0,NaN,2.736,19.5,0.0,10 / 13,75027,2020-03-15 13:03:58:427
5.171476,-4.936844,4.027047,0.0,49.838005,24.03163,311.0,NaN,2.736,19.5,0.0,10 / 13,75527,2020-03-15 13:03:58:927
13.158532,1.216255,5.200207,0.0,49.838005,24.03163,311.0,NaN,2.736,19.5,0.0,10 / 13,76027,2020-03-15 13:03:59:427
12.124237,-1.25935,1.991976,0.0,49.838005,24.03163,311.0,NaN,2.736,19.5,0.0,10 / 13,76527,2020-03-15 13:03:59:927
11.669339,2.576161,2.494758,0.0,49.838005,24.03163,311.0,NaN,2.736,19.5,0.0,10 / 13,77028,2020-03-15 13:04:00:428
7.905654,-1.120486,0.612916,0.0,49.838005,24.03163,311.0,NaN,2.736,19.5,0.0,10 / 13,77528,2020-03-15 13:04:00:928
4.587291,-1.225831,1.786075,0.0,49.838005,24.03163,311.0,NaN,2.736,19.5,0.0,10 / 13,78028,2020-03-15 13:04:01:428
8.322245,0.972046,2.030283,0.0,49.838005,24.03163,311.0,NaN,2.736,19.5,0.0,10 / 13,78527,2020-03-15 13:04:01:927
6.560113,-1.92015,9.318233,0.0,49.838005,24.03163,311.0,NaN,2.736,19.5,0.0,10 / 13,79027,2020-03-15 13:04:02:427
13.503298,0.253785,3.931279,0.0,49.838005,24.03163,311.0,NaN,2.736,19.5,0.0,10 / 13,79527,2020-03-15 13:04:02:927
11.908759,-2.72939,5.401319,0.0,49.838005,24.03163,311.0,NaN,2.736,19.5,0.0,10 / 13,80027,2020-03-15 13:04:03:427
6.641516,0.493206,3.634398,0.0,49.838005,24.03163,311.0,NaN,2.736,19.5,0.0,10 / 13,80527,2020-03-15 13:04:03:927
8.082825,-0.378284,0.670377,0.0,49.838005,24.03163,311.0,NaN,2.736,19.5,0.0,10 / 13,81027,2020-03-15 13:04:04:427
5.516241,-1.144428,1.752556,0.0,49.838005,24.03163,311.0,NaN,2.736,19.5,0.0,10 / 13,81527,2020-03-15 13:04:04:927
8.604761,0.723049,2.566584,0.0,49.838005,24.03163,311.0,NaN,2.736,19.5,0.0,10 / 13,82027,2020-03-15 13:04:05:427
9.203311,-1.786074,9.399636,0.0,49.838005,24.03163,311.0,NaN,2.736,19.5,0.0,10 / 13,82528,2020-03-15 13:04:05:928
10.093954,0.038307,5.137957,0.0,49.838005,24.03163,311.0,NaN,2.736,19.5,0.0,10 / 13,83028,2020-03-15 13:04:06:428
14.264654,0.670377,-0.823605,0.0,49.838005,24.03163,311.0,NaN,2.736,19.5,0.0,10 / 13,83527,2020-03-15 13:04:06:927
9.165004,2.480393,2.015918,0.0,49.838005,24.03163,311.0,NaN,2.736,19.5,0.0,10 / 13,84028,2020-03-15 13:04:07:428
3.615245,-0.138864,2.504335,0.0,49.838005,24.03163,311.0,NaN,2.736,19.5,0.0,10 / 13,84527,2020-03-15 13:04:07:927
8.595184,-1.264138,1.996764,0.0,49.838005,24.03163,311.0,NaN,2.736,19.5,0.0,10 / 13,85027,2020-03-15 13:04:08:427
12.492945,-2.643199,0.651223,0.0,49.838005,24.03163,311.0,NaN,2.736,19.5,0.0,10 / 13,85527,2020-03-15 13:04:08:927
6.584055,-1.608903,0.474052,0.0,49.838005,24.03163,311.0,NaN,2.736,19.5,0.0,10 / 13,86027,2020-03-15 13:04:09:427
11.664551,-3.145981,0.435745,0.0,49.838005,24.03163,311.0,NaN,2.736,19.5,0.0,10 / 13,86527,2020-03-15 13:04:09:927
8.303091,-2.935291,6.291962,0.0,49.838005,24.03163,311.0,NaN,2.736,19.5,0.0,10 / 13,87028,2020-03-15 13:04:10:428
12.713211,1.297657,3.308787,0.0,49.838005,24.03163,311.0,NaN,2.736,19.5,0.0,10 / 13,87528,2020-03-15 13:04:10:928
14.053964,-0.574608,-0.292093,0.0,49.838005,24.03163,311.0,NaN,2.736,19.5,0.0,10 / 13,88028,2020-03-15 13:04:11:428
8.341399,1.297657,2.906561,0.0,49.838005,24.03163,311.0,NaN,2.736,19.5,0.0,10 / 13,88527,2020-03-15 13:04:11:927
3.792416,-1.11091,2.537854,0.0,49.838005,24.03163,311.0,NaN,2.736,19.5,0.0,10 / 13,89027,2020-03-15 13:04:12:427
7.776367,-0.272939,2.896984,0.0,49.838005,24.03163,311.0,NaN,2.736,19.5,0.0,10 / 13,89527,2020-03-15 13:04:12:927
9.974244,-4.448426,4.826711,0.0,49.838005,24.03163,311.0,NaN,2.736,19.5,0.0,10 / 13,90027,2020-03-15 13:04:13:427
9.696517,-1.814805,4.036624,0.0,49.838005,24.03163,311.0,NaN,2.736,19.5,0.0,10 / 13,90528,2020-03-15 13:04:13:928
14.259866,1.297657,2.710236,0.0,49.838005,24.03163,311.0,NaN,2.736,19.5,0.0,10 / 13,91028,2020-03-15 13:04:14:428
7.814675,-1.043872,0.828394,0.0,49.838005,24.03163,311.0,NaN,2.736,19.5,0.0,10 / 13,91528,2020-03-15 13:04:14:928
12.042834,1.881843,3.696648,0.0,49.838005,24.03163,311.0,NaN,2.736,19.5,0.0,10 / 13,92028,2020-03-15 13:04:15:428
7.675811,-2.738967,1.297657,0.0,49.838005,24.03163,311.0,NaN,2.736,19.5,0.0,10 / 13,92527,2020-03-15 13:04:15:927
5.018247,-0.981623,1.972822,0.0,49.838005,24.03163,311.0,NaN,2.736,19.5,0.0,10 / 13,93027,2020-03-15 13:04:16:427
7.594408,0.416591,1.335965,0.0,49.838005,24.03163,311.0,NaN,2.736,19.5,0.0,10 / 13,93527,2020-03-15 13:04:16:927
7.163452,-1.987187,9.816227,0.0,49.838005,24.03163,311.0,NaN,2.736,19.5,0.0,10 / 13,94027,2020-03-15 13:04:17:427
9.466674,0.076614,7.340623,0.0,49.838005,24.03163,311.0,NaN,2.736,19.5,0.0,10 / 13,94528,2020-03-15 13:04:17:928
12.981361,-0.584185,0.526724,0.0,49.838005,24.03163,311.0,NaN,2.736,19.5,0.0,10 / 13,95028,2020-03-15 13:04:18:428
7.321469,1.096544,2.537854,0.0,49.838005,24.03163,311.0,NaN,2.736,19.5,0.0,10 / 13,95528,2020-03-15 13:04:18:928
5.45878,-0.191536,2.624045,0.0,49.838005,24.03163,311.0,NaN,2.736,19.5,0.0,10 / 13,96028,2020-03-15 13:04:19:428
5.497087,0.148441,3.256114,0.0,49.838005,24.03163,311.0,NaN,2.736,19.5,0.0,10 / 13,96528,2020-03-15 13:04:19:928
5.683835,0.742203,3.112462,0.0,49.838005,24.03163,311.0,NaN,2.736,19.5,0.0,10 / 13,97027,2020-03-15 13:04:20:427
6.789956,-1.197101,8.777143,0.0,49.838005,24.03163,311.0,NaN,2.736,19.5,0.0,10 / 13,97527,2020-03-15 13:04:20:927
7.268797,-3.011906,8.949526,0.0,49.838005,24.03163,311.0,NaN,2.736,19.5,0.0,10 / 13,98027,2020-03-15 13:04:21:427
16.294937,2.092532,1.340753,0.0,49.838005,24.03163,311.0,NaN,2.736,19.5,0.0,10 / 13,98527,2020-03-15 13:04:21:927
10.309433,2.600103,2.70066,0.0,49.838005,24.03163,311.0,NaN,2.736,19.5,0.0,10 / 13,99028,2020-03-15 13:04:22:428
4.405331,-0.995988,2.025495,0.0,49.838005,24.03163,311.0,NaN,2.736,19.5,0.0,10 / 13,99528,2020-03-15 13:04:22:928
6.397307,-2.293645,0.890643,0.0,49.838005,24.03163,311.0,NaN,2.736,19.5,0.0,10 / 13,100028,2020-03-15 13:04:23:428
3.687071,-0.105345,3.548207,0.0,49.838005,24.03163,311.0,NaN,2.736,19.5,0.0,10 / 13,100527,2020-03-15 13:04:23:927
9.342175,0.948104,3.596091,0.0,49.838005,24.03163,311.0,NaN,2.736,19.5,0.0,10 / 13,101027,2020-03-15 13:04:24:427
9.188946,-2.5187,6.512229,0.0,49.838005,24.03163,311.0,NaN,2.736,19.5,0.0,10 / 13,101527,2020-03-15 13:04:24:927
9.150639,-2.777274,8.365341,0.0,49.838005,24.03163,311.0,NaN,2.736,19.5,0.0,10 / 13,102027,2020-03-15 13:04:25:427
13.718776,1.843535,3.442862,0.0,49.838005,24.03163,311.0,NaN,2.736,19.5,0.0,10 / 13,102528,2020-03-15 13:04:25:928
10.314221,-1.278504,0.579397,0.0,49.838005,24.03163,311.0,NaN,2.736,19.5,0.0,10 / 13,103028,2020-03-15 13:04:26:428
4.951209,-0.967257,2.269703,0.0,49.838005,24.03163,311.0,NaN,2.736,19.5,0.0,10 / 13,103527,2020-03-15 13:04:26:927
6.727707,0.181959,2.37026,0.0,49.838005,24.03163,311.0,NaN,2.736,19.5,0.0,10 / 13,104027,2020-03-15 13:04:27:427
5.238514,-1.13964,0.095768,0.0,49.838005,24.03163,311.0,NaN,2.736,19.5,0.0,10 / 13,104527,2020-03-15 13:04:27:927
7.374141,0.521936,1.977611,0.0,49.838005,24.03163,311.0,NaN,2.736,19.5,0.0,10 / 13,105027,2020-03-15 13:04:28:427
7.067683,-3.064578,10.491392,0.0,49.838005,24.03163,311.0,NaN,2.736,19.5,0.0,10 / 13,105528,2020-03-15 13:04:28:928
12.057199,-0.411803,5.473145,0.0,49.838005,24.03163,311.0,NaN,2.736,19.5,0.0,10 / 13,106028,2020-03-15 13:04:29:428
16.869543,1.431733,0.957681,0.0,49.838005,24.03163,311.0,NaN,2.736,19.5,0.0,10 / 13,106528,2020-03-15 13:04:29:928
11.085154,1.68073,2.389413,0.0,49.838005,24.03163,311.0,NaN,2.736,19.5,0.0,10 / 13,107027,2020-03-15 13:04:30:427
6.066907,-1.422156,1.374272,0.0,49.838005,24.03163,311.0,NaN,2.736,19.5,0.0,10 / 13,107528,2020-03-15 13:04:30:928
5.856218,-1.987187,0.158017,0.0,49.838005,24.03163,311.0,NaN,2.736,19.5,0.0,10 / 13,108028,2020-03-15 13:04:31:428
9.763555,-1.446098,1.446098,0.0,49.838005,24.03163,311.0,NaN,2.736,19.5,0.0,10 / 13,108528,2020-03-15 13:04:31:928
6.086061,-1.412579,9.931149,0.0,49.838005,24.03163,311.0,NaN,2.736,19.5,0.0,10 / 13,109028,2020-03-15 13:04:32:428
7.728483,0.469264,1.37906,0.0,49.838005,24.03163,311.0,NaN,2.736,19.5,0.0,10 / 13,109528,2020-03-15 13:04:32:928
9.849746,-1.872266,6.191406,0.0,49.838005,24.03163,311.0,NaN,2.736,19.5,0.0,10 / 13,110028,2020-03-15 13:04:33:428
12.722788,-0.110133,5.066131,0.0,49.838005,24.03163,311.0,NaN,2.736,19.5,0.0,10 / 13,110527,2020-03-15 13:04:33:927
16.745047,1.23062,0.167594,0.0,49.838005,24.03163,311.0,NaN,2.736,19.5,0.0,10 / 13,111028,2020-03-15 13:04:34:428
11.027693,2.705448,2.815581,0.0,49.838005,24.03163,311.0,NaN,2.736,19.5,0.0,10 / 13,111528,2020-03-15 13:04:34:928
5.181053,-1.551443,1.503559,0.0,49.838005,24.03163,311.0,NaN,2.736,19.5,0.0,10 / 13,112027,2020-03-15 13:04:35:427
5.559336,-1.039083,1.915361,0.0,49.838005,24.03163,311.0,NaN,2.736,19.5,0.0,10 / 13,112528,2020-03-15 13:04:35:928
7.40766,1.795651,2.451663,0.0,49.838005,24.03163,311.0,NaN,2.736,19.5,0.0,10 / 13,113028,2020-03-15 13:04:36:428
8.432379,1.106121,5.995081,0.0,49.838005,24.03163,311.0,NaN,2.736,19.5,0.0,10 / 13,113528,2020-03-15 13:04:36:928
8.350976,-2.293645,9.797073,0.0,49.838005,24.03163,311.0,NaN,2.736,19.5,0.0,10 / 13,114027,2020-03-15 13:04:37:427
10.026917,-1.077391,5.348647,0.0,49.838005,24.03163,311.0,NaN,2.736,19.5,0.0,10 / 13,114527,2020-03-15 13:04:37:927
6.938397,-2.686294,8.532935,0.0,49.838005,24.03163,311.0,NaN,2.736,19.5,0.0,10 / 13,115027,2020-03-15 13:04:38:427
14.355634,1.149217,4.572925,0.0,49.838005,24.03163,311.0,NaN,2.736,19.5,0.0,10 / 13,115528,2020-03-15 13:04:38:928
11.650186,2.092532,4.793192,0.0,49.838005,24.03163,311.0,NaN,2.736,19.5,0.0,10 / 13,116028,2020-03-15 13:04:39:428
8.604761,-0.325611,0.622492,0.0,49.838005,24.03163,311.0,NaN,2.736,19.5,0.0,10 / 13,116528,2020-03-15 13:04:39:928
5.123592,-0.526724,2.858677,0.0,49.838005,24.03163,311.0,NaN,2.736,19.5,0.0,10 / 13,117028,2020-03-15 13:04:40:428
5.554548,1.757344,3.409343,0.0,49.838005,24.03163,311.0,NaN,2.736,19.5,0.0,10 / 13,117527,2020-03-15 13:04:40:927
8.317456,-0.071826,7.422025,0.0,49.838005,24.03163,311.0,NaN,2.736,19.5,0.0,10 / 13,118027,2020-03-15 13:04:41:427
8.101979,-1.182736,8.647857,0.0,49.838005,24.03163,311.0,NaN,2.736,19.5,0.0,10 / 13,118527,2020-03-15 13:04:41:927
14.231135,0.502782,4.228161,0.0,49.838005,24.03163,311.0,NaN,2.736,19.5,0.0,10 / 13,119027,2020-03-15 13:04:42:427
11.219229,1.37906,3.423709,0.0,49.838005,24.03163,311.0,NaN,2.736,19.5,0.0,10 / 13,119527,2020-03-15 13:04:42:927
5.061342,-2.111686,0.201113,0.0,49.838005,24.03163,311.0,NaN,2.736,19.5,0.0,10 / 13,120028,2020-03-15 13:04:43:428
12.339716,2.619257,3.926491,0.0,49.838005,24.03163,311.0,NaN,2.736,19.5,0.0,10 / 13,120528,2020-03-15 13:04:43:928
5.209783,-2.523488,0.9912,0.0,49.838005,24.03163,311.0,NaN,2.736,19.5,0.0,10 / 13,121028,2020-03-15 13:04:44:428
5.12838,-1.134852,-0.23942,0.0,49.838005,24.03163,311.0,NaN,2.736,19.5,0.0,10 / 13,121528,2020-03-15 13:04:44:928
7.982269,0.881066,1.35033,0.0,49.838005,24.03163,311.0,NaN,2.736,19.5,0.0,10 / 13,122027,2020-03-15 13:04:45:427
8.805874,-0.871489,8.748413,0.0,49.838005,24.03163,311.0,NaN,2.736,19.5,0.0,10 / 13,122527,2020-03-15 13:04:45:927
7.699753,-2.466028,12.354081,0.0,49.838005,24.03163,311.0,NaN,2.736,19.5,0.0,10 / 13,123028,2020-03-15 13:04:46:428
14.638149,0.220267,3.213019,0.0,49.838005,24.03163,311.0,NaN,2.736,19.5,0.0,10 / 13,123528,2020-03-15 13:04:46:928
11.113884,2.743755,3.466804,0.0,49.838005,24.03163,311.0,NaN,2.736,19.5,0.0,10 / 13,124028,2020-03-15 13:04:47:428
6.311116,-1.675941,0.871489,0.0,49.838005,24.03163,311.0,NaN,2.736,19.5,0.0,10 / 13,124528,2020-03-15 13:04:47:928
10.414778,1.996764,3.624822,0.0,49.838005,24.03163,311.0,NaN,2.736,19.5,0.0,10 / 13,125027,2020-03-15 13:04:48:427
6.071696,-2.375048,0.905008,0.0,49.838005,24.03163,311.0,NaN,2.736,19.5,0.0,10 / 13,125527,2020-03-15 13:04:48:927
4.898537,-1.316811,0.847547,0.0,49.838005,24.03163,311.0,NaN,2.736,19.5,0.0,10 / 13,126027,2020-03-15 13:04:49:427
6.402096,1.613692,2.451663,0.0,49.838005,24.03163,311.0,NaN,2.736,19.5,0.0,10 / 13,126527,2020-03-15 13:04:49:927
7.086837,-1.651999,9.639056,0.0,49.838005,24.03163,311.0,NaN,2.736,19.5,0.0,10 / 13,127027,2020-03-15 13:04:50:427
6.83784,-2.274491,11.425131,0.0,49.838005,24.03163,311.0,NaN,2.736,19.5,0.0,10 / 13,127528,2020-03-15 13:04:50:928
13.656527,-0.306458,5.76045,0.0,49.838005,24.03163,311.0,NaN,2.736,19.5,0.0,10 / 13,128028,2020-03-15 13:04:51:428
12.373235,1.766921,3.787627,0.0,49.838005,24.03163,311.0,NaN,2.736,19.5,0.0,10 / 13,128527,2020-03-15 13:04:51:927
13.9151,-0.828394,7.091625,0.0,49.838005,24.03163,311.0,NaN,2.736,19.5,0.0,10 / 13,129027,2020-03-15 13:04:52:427
14.298173,2.628834,3.567361,0.0,49.838005,24.03163,311.0,NaN,2.736,19.5,0.0,10 / 13,129527,2020-03-15 13:04:52:927
9.423578,-1.283292,0.483629,0.0,49.838005,24.03163,311.0,NaN,2.736,19.5,0.0,10 / 13,130027,2020-03-15 13:04:53:427
3.399767,-0.861913,-0.756568,0.0,49.838005,24.03163,311.0,NaN,2.736,19.5,0.0,10 / 13,130527,2020-03-15 13:04:53:927
4.721366,1.278504,3.916914,0.0,49.838005,24.03163,311.0,NaN,2.736,19.5,0.0,10 / 13,131027,2020-03-15 13:04:54:427
10.802638,1.015142,5.353435,0.0,49.838005,24.03163,311.0,NaN,2.736,19.5,0.0,10 / 13,131527,2020-03-15 13:04:54:927
8.465898,-2.106897,9.136273,0.0,49.838005,24.03163,311.0,NaN,2.736,19.5,0.0,10 / 13,132027,2020-03-15 13:04:55:427
18.32522,0.684742,5.616797,0.0,49.838005,24.03163,311.0,NaN,2.736,19.5,0.0,10 / 13,132527,2020-03-15 13:04:55:927
7.455544,-3.083732,9.619903,0.0,49.838005,24.03163,311.0,NaN,2.736,19.5,0.0,10 / 13,133028,2020-03-15 13:04:56:428
12.842498,-0.469264,4.582502,0.0,49.838005,24.03163,311.0,NaN,2.736,19.5,0.0,10 / 13,133527,2020-03-15 13:04:56:927
12.713211,2.293645,4.007894,0.0,49.838005,24.03163,311.0,NaN,2.736,19.5,0.0,10 / 13,134027,2020-03-15 13:04:57:427
11.975797,-1.13964,1.115698,0.0,49.838005,24.03163,311.0,NaN,2.736,19.5,0.0,10 / 13,134527,2020-03-15 13:04:57:927
5.793968,1.039084,2.815581,0.0,49.838005,24.03163,311.0,NaN,2.736,19.5,0.0,10 / 13,135027,2020-03-15 13:04:58:427
2.355895,0.311246,1.900996,0.0,49.838005,24.03163,311.0,NaN,2.736,19.5,0.0,10 / 13,135528,2020-03-15 13:04:58:928
6.737284,-1.805228,0.646435,0.0,49.838005,24.03163,311.0,NaN,2.736,19.5,0.0,10 / 13,136028,2020-03-15 13:04:59:428
10.644621,-3.730166,0.737414,0.0,49.838005,24.03163,311.0,NaN,2.736,19.5,0.0,10 / 13,136528,2020-03-15 13:04:59:928
10.749966,-2.480393,6.21056,0.0,49.838005,24.03163,311.0,NaN,2.736,19.5,0.0,10 / 13,137028,2020-03-15 13:05:00:428
13.608643,-0.814029,3.203442,0.0,49.838005,24.03163,311.0,NaN,2.736,19.5,0.0,10 / 13,137527,2020-03-15 13:05:00:927
11.473015,-2.63841,6.799533,0.0,49.838005,24.03163,311.0,NaN,2.736,19.5,0.0,0 / 0,138027,2020-03-15 13:05:01:427
12.756307,-1.144428,4.472369,0.0,49.838005,24.03163,311.0,NaN,2.736,19.5,0.0,0 / 1,138528,2020-03-15 13:05:01:928
16.31409,0.014365,-2.130839,0.0,49.838005,24.03163,311.0,NaN,2.736,19.5,0.0,0 / 1,139028,2020-03-15 13:05:02:428
12.129025,2.164359,3.65834,0.0,49.838005,24.03163,311.0,NaN,2.736,19.5,0.0,0 / 3,139528,2020-03-15 13:05:02:928
7.369353,-1.805228,0.732626,0.0,49.838005,24.03163,311.0,NaN,2.736,19.5,0.0,0 / 3,140028,2020-03-15 13:05:03:428
3.026271,-1.881842,-1.058237,0.0,49.838005,24.03163,311.0,NaN,2.736,19.5,0.0,0 / 9,140527,2020-03-15 13:05:03:927
7.105991,1.359907,2.312799,0.0,49.838005,24.03163,311.0,NaN,2.736,19.5,0.0,0 / 9,141027,2020-03-15 13:05:04:427
9.662998,1.158794,6.258444,0.0,49.838005,24.03163,311.0,NaN,2.736,19.5,0.0,0 / 10,141527,2020-03-15 13:05:04:927
10.295067,-3.715801,4.994305,0.0,49.838005,24.03163,311.0,NaN,2.736,19.5,0.0,0 / 10,142027,2020-03-15 13:05:05:427
4.295198,-5.72693,3.572149,0.0,49.838005,24.03163,311.0,NaN,2.736,19.5,0.0,0 / 10,142528,2020-03-15 13:05:05:928
13.474567,0.967258,3.744532,0.0,49.838005,24.03163,311.0,NaN,2.736,19.5,0.0,0 / 10,143028,2020-03-15 13:05:06:428
12.665327,-1.493982,2.571373,0.0,49.838005,24.03163,311.0,NaN,2.736,19.5,0.0,0 / 11,143528,2020-03-15 13:05:06:928
7.101202,1.292869,2.614468,0.0,49.838005,24.03163,311.0,NaN,2.736,19.5,0.0,0 / 11,144027,2020-03-15 13:05:07:427
3.663129,-1.154005,1.580173,0.0,49.836983,24.031557,323.0,NaN,4.356,15.0,97.4,11 / 12,144527,2020-03-15 13:05:07:927
6.766014,-2.078167,0.684742,0.0,49.836983,24.031557,323.0,NaN,4.356,15.0,97.4,11 / 12,145028,2020-03-15 13:05:08:428
4.180277,-1.369483,1.211466,0.0,49.836983,24.031557,323.0,NaN,4.356,15.0,97.4,11 / 12,145528,2020-03-15 13:05:08:928
8.413225,-1.034295,2.925715,0.0,49.836983,24.031557,323.0,NaN,4.356,15.0,97.4,11 / 12,146027,2020-03-15 13:05:09:427
8.485051,-0.507571,0.124498,0.0,49.836983,24.031557,323.0,NaN,4.356,15.0,97.4,11 / 12,146527,2020-03-15 13:05:09:927
3.825935,-1.426944,2.485181,0.0,49.836983,24.031557,323.0,NaN,4.356,15.0,97.4,11 / 12,147028,2020-03-15 13:05:10:428
7.991845,-2.734178,-0.100556,0.0,49.836983,24.031557,323.0,NaN,4.356,15.0,97.4,11 / 12,147528,2020-03-15 13:05:10:928
13.062764,-5.760449,4.367024,0.0,49.836983,24.031557,323.0,NaN,4.356,15.0,97.4,11 / 12,148028,2020-03-15 13:05:11:428
7.422025,-3.021482,8.135497,0.0,49.836983,24.031557,323.0,NaN,4.356,15.0,97.4,11 / 12,148528,2020-03-15 13:05:11:928
12.871228,-1.872266,4.654328,0.0,49.836983,24.031557,323.0,NaN,4.356,15.0,97.4,11 / 12,149027,2020-03-15 13:05:12:427
12.191275,-5.003881,3.313575,0.0,49.836983,24.031557,323.0,NaN,4.356,15.0,97.4,11 / 12,149527,2020-03-15 13:05:12:927
5.966351,0.181959,2.94008,0.0,49.836983,24.031557,323.0,NaN,4.356,15.0,97.4,11 / 12,150027,2020-03-15 13:05:13:427
4.247314,-0.158017,4.338294,0.0,49.836983,24.031557,323.0,NaN,4.356,15.0,97.4,11 / 12,150528,2020-03-15 13:05:13:928
5.291186,-0.430956,3.040636,0.0,49.836983,24.031557,323.0,NaN,4.356,15.0,97.4,11 / 12,151028,2020-03-15 13:05:14:428
3.835511,0.555455,3.318364,0.0,49.836983,24.031557,323.0,NaN,4.356,15.0,97.4,11 / 12,151528,2020-03-15 13:05:14:928
9.461885,0.378284,3.462016,0.0,49.836983,24.031557,323.0,NaN,4.356,15.0,97.4,11 / 12,152027,2020-03-15 13:05:15:427
8.829816,-3.117251,7.316681,0.0,49.836983,24.031557,323.0,NaN,4.356,15.0,97.4,11 / 12,152527,2020-03-15 13:05:15:927
10.544065,-2.691083,7.369353,0.0,49.836983,24.031557,323.0,NaN,4.356,15.0,97.4,11 / 12,153027,2020-03-15 13:05:16:427
13.431472,2.576161,2.466028,0.0,49.836983,24.031557,323.0,NaN,4.356,15.0,97.4,11 / 12,153527,2020-03-15 13:05:16:927
11.425131,-2.762909,1.517924,0.0,49.836983,24.031557,323.0,NaN,4.356,15.0,97.4,11 / 12,154028,2020-03-15 13:05:17:428
6.469133,0.277727,3.318364,0.0,49.836983,24.031557,323.0,NaN,4.356,15.0,97.4,11 / 12,154528,2020-03-15 13:05:17:928
1.647211,-0.201113,2.437297,0.0,49.836983,24.031557,323.0,NaN,4.356,15.0,97.4,11 / 12,155028,2020-03-15 13:05:18:428
7.848193,-0.459687,2.662352,0.0,49.836983,24.031557,323.0,NaN,4.356,15.0,97.4,11 / 12,155527,2020-03-15 13:05:18:927
9.41879,-5.449203,4.525041,0.0,49.836983,24.031557,323.0,NaN,4.356,15.0,97.4,11 / 12,156027,2020-03-15 13:05:19:427
9.835381,1.120486,4.084508,0.0,49.836983,24.031557,323.0,NaN,4.356,15.0,97.4,11 / 12,156528,2020-03-15 13:05:19:928
9.150639,-3.414132,8.470686,0.0,49.836983,24.031557,323.0,NaN,4.356,15.0,97.4,11 / 12,157028,2020-03-15 13:05:20:428
11.664551,-2.384625,11.535264,0.0,49.836983,24.031557,323.0,NaN,4.356,15.0,97.4,11 / 12,157528,2020-03-15 13:05:20:928
12.550406,1.900996,3.615245,0.0,49.836983,24.031557,323.0,NaN,4.356,15.0,97.4,11 / 12,158027,2020-03-15 13:05:21:427
8.623915,-1.474828,0.014365,0.0,49.836983,24.031557,323.0,NaN,4.356,15.0,97.4,11 / 12,158527,2020-03-15 13:05:21:927
5.995081,-0.761356,0.608127,0.0,49.836983,24.031557,323.0,NaN,4.356,15.0,97.4,11 / 12,159028,2020-03-15 13:05:22:428
7.249643,1.101333,1.11091,0.0,49.836983,24.031557,323.0,NaN,4.356,15.0,97.4,11 / 12,159527,2020-03-15 13:05:22:927
7.833828,-3.007117,10.496181,0.0,49.836983,24.031557,323.0,NaN,4.356,15.0,97.4,11 / 12,160027,2020-03-15 13:05:23:427
9.41879,-0.746991,-0.311246,0.0,49.836983,24.031557,323.0,NaN,4.356,15.0,97.4,0 / 0,160527,2020-03-15 13:05:23:927
9.591172,-2.782062,7.70933,0.0,49.836983,24.031557,323.0,NaN,4.356,15.0,97.4,0 / 0,161028,2020-03-15 13:05:24:428
14.231135,0.272939,3.854665,0.0,49.836983,24.031557,323.0,NaN,4.356,15.0,97.4,0 / 2,161527,2020-03-15 13:05:24:927
12.3876,-2.839523,3.20823,0.0,49.836983,24.031557,323.0,NaN,4.356,15.0,97.4,0 / 2,162027,2020-03-15 13:05:25:427
6.991069,1.015142,3.241749,0.0,49.836983,24.031557,323.0,NaN,4.356,15.0,97.4,0 / 3,162527,2020-03-15 13:05:25:927
2.662352,-0.517148,2.877831,0.0,49.836983,24.031557,323.0,NaN,4.356,15.0,97.4,0 / 3,163028,2020-03-15 13:05:26:428
8.09719,-0.387861,3.074155,0.0,49.836983,24.031557,323.0,NaN,4.356,15.0,97.4,8 / 8,163528,2020-03-15 13:05:26:928
9.504981,-5.391742,4.702213,0.0,49.836983,24.031557,323.0,NaN,4.356,15.0,97.4,8 / 8,164027,2020-03-15 13:05:27:427
10.94629,0.895431,4.338294,0.0,49.836983,24.031557,323.0,NaN,4.356,15.0,97.4,0 / 8,164527,2020-03-15 13:05:27:927
6.665458,-2.217031,11.348516,0.0,49.836983,24.031557,323.0,NaN,4.356,15.0,97.4,0 / 8,165027,2020-03-15 13:05:28:427
14.54717,1.015142,2.643199,0.0,49.836983,24.031557,323.0,NaN,4.356,15.0,97.4,0 / 9,165527,2020-03-15 13:05:28:927
10.874464,1.254562,1.900996,0.0,49.836983,24.031557,323.0,NaN,4.356,15.0,97.4,0 / 9,166027,2020-03-15 13:05:29:427
6.038177,-0.751779,1.527501,0.0,49.836983,24.031557,323.0,NaN,4.356,15.0,97.4,0 / 11,166527,2020-03-15 13:05:29:927
5.985504,-2.949656,0.818817,0.0,49.836983,24.031557,323.0,NaN,4.356,15.0,97.4,0 / 11,167027,2020-03-15 13:05:30:427
15.040375,-4.156334,2.284068,0.0,49.836983,24.031557,323.0,NaN,4.356,15.0,97.4,11 / 11,167527,2020-03-15 13:05:30:927
8.954314,-2.643199,6.38773,0.0,49.836983,24.031557,323.0,NaN,4.356,15.0,97.4,11 / 11,168027,2020-03-15 13:05:31:427
13.508086,-0.244209,4.285621,0.0,49.836983,24.031557,323.0,NaN,4.356,15.0,97.4,11 / 11,168527,2020-03-15 13:05:31:927
5.951986,-6.478709,8.671799,0.0,49.836983,24.031557,323.0,NaN,4.356,15.0,97.4,11 / 11,169027,2020-03-15 13:05:32:427
14.709975,1.56102,4.060566,0.0,49.836983,24.031557,323.0,NaN,4.356,15.0,97.4,11 / 11,169528,2020-03-15 13:05:32:928
13.464991,-3.552995,0.445322,0.0,49.836983,24.031557,323.0,NaN,4.356,15.0,97.4,11 / 11,170028,2020-03-15 13:05:33:428
5.104438,0.205901,2.044648,0.0,49.836983,24.031557,323.0,NaN,4.356,15.0,97.4,11 / 11,170527,2020-03-15 13:05:33:927
3.916914,-0.191536,0.895431,0.0,49.836983,24.031557,323.0,NaN,4.356,15.0,97.4,11 / 11,171027,2020-03-15 13:05:34:427
10.127473,0.440533,2.911349,0.0,49.836983,24.031557,323.0,NaN,4.356,15.0,97.4,11 / 11,171528,2020-03-15 13:05:34:928
9.495404,-4.932055,5.741296,0.0,49.836983,24.031557,323.0,NaN,4.356,15.0,97.4,11 / 11,172028,2020-03-15 13:05:35:428
11.243171,-2.250549,8.868123,0.0,49.836983,24.031557,323.0,NaN,4.356,15.0,97.4,11 / 11,172528,2020-03-15 13:05:35:928
13.22557,2.011129,3.112462,0.0,49.836983,24.031557,323.0,NaN,4.356,15.0,97.4,11 / 11,173027,2020-03-15 13:05:36:427
10.591949,-2.140416,8.327033,0.0,49.836983,24.031557,323.0,NaN,4.356,15.0,97.4,11 / 11,173527,2020-03-15 13:05:36:927
12.378023,2.355895,6.584055,0.0,49.836983,24.031557,323.0,NaN,4.356,15.0,97.4,11 / 11,174027,2020-03-15 13:05:37:427
14.590265,0.411803,1.13964,0.0,49.836983,24.031557,323.0,NaN,4.356,15.0,97.4,11 / 11,174527,2020-03-15 13:05:37:927
4.520253,-0.411803,1.570596,0.0,49.836983,24.031557,323.0,NaN,4.356,15.0,97.4,11 / 11,175028,2020-03-15 13:05:38:428
4.515465,-0.35913,3.280056,0.0,49.836983,24.031557,323.0,NaN,4.356,15.0,97.4,11 / 11,175528,2020-03-15 13:05:38:928
8.183381,0.023942,3.356671,0.0,49.836983,24.031557,323.0,NaN,4.356,15.0,97.4,11 / 11,176028,2020-03-15 13:05:39:428
9.878476,-4.572925,5.746084,0.0,49.836983,24.031557,323.0,NaN,4.356,15.0,97.4,11 / 11,176528,2020-03-15 13:05:39:928
10.726024,-2.494758,5.061342,0.0,49.836983,24.031557,323.0,NaN,4.356,15.0,97.4,11 / 11,177027,2020-03-15 13:05:40:427
13.790602,1.115698,2.719813,0.0,49.836983,24.031557,323.0,NaN,4.356,15.0,97.4,11 / 11,177527,2020-03-15 13:05:40:927
10.548853,-3.007117,9.428367,0.0,49.836983,24.031557,323.0,NaN,4.356,15.0,97.4,11 / 11,178027,2020-03-15 13:05:41:427
12.368446,1.977611,3.533842,0.0,49.836983,24.031557,323.0,NaN,4.356,15.0,97.4,11 / 11,178527,2020-03-15 13:05:41:927
11.013328,-0.550666,0.397437,0.0,49.836983,24.031557,323.0,NaN,4.356,15.0,97.4,11 / 11,179027,2020-03-15 13:05:42:427
4.472369,-0.746991,2.547431,0.0,49.836983,24.031557,323.0,NaN,4.356,15.0,97.4,11 / 11,179527,2020-03-15 13:05:42:927
5.602432,1.723825,2.882619,0.0,49.836983,24.031557,323.0,NaN,4.356,15.0,97.4,11 / 11,180027,2020-03-15 13:05:43:427
9.193734,0.962469,5.741296,0.0,49.836983,24.031557,323.0,NaN,4.356,15.0,97.4,11 / 11,180527,2020-03-15 13:05:43:927
7.82904,-2.15957,10.989386,0.0,49.836983,24.031557,323.0,NaN,4.356,15.0,97.4,11 / 11,181028,2020-03-15 13:05:44:428
16.697163,0.258574,6.909666,0.0,49.836983,24.031557,323.0,NaN,4.356,15.0,97.4,11 / 11,181528,2020-03-15 13:05:44:928
7.000646,-2.719813,12.737153,0.0,49.836983,24.031557,323.0,NaN,4.356,15.0,97.4,11 / 11,182028,2020-03-15 13:05:45:428
12.129025,-1.838747,8.494628,0.0,49.836983,24.031557,323.0,NaN,4.356,15.0,97.4,11 / 11,182528,2020-03-15 13:05:45:928
10.831368,1.546654,4.927267,0.0,49.836983,24.031557,323.0,NaN,4.356,15.0,97.4,11 / 11,183028,2020-03-15 13:05:46:428
6.799533,-1.987187,0.905008,0.0,49.836983,24.031557,323.0,NaN,4.356,15.0,97.4,11 / 11,183528,2020-03-15 13:05:46:928
4.831499,-1.398214,-0.483629,0.0,49.836983,24.031557,323.0,NaN,4.356,15.0,97.4,11 / 11,184027,2020-03-15 13:05:47:427
8.173805,0.656011,1.781286,0.0,49.836983,24.031557,323.0,NaN,4.356,15.0,97.4,11 / 11,184527,2020-03-15 13:05:47:927
7.25922,-2.8491,9.682152,0.0,49.836983,24.031557,323.0,NaN,4.356,15.0,97.4,11 / 11,185027,2020-03-15 13:05:48:427
11.707646,-0.790087,3.801993,0.0,49.836983,24.031557,323.0,NaN,4.356,15.0,97.4,11 / 11,185527,2020-03-15 13:05:48:927
5.932832,-3.098097,10.730812,0.0,49.836983,24.031557,323.0,NaN,4.356,15.0,97.4,11 / 11,186027,2020-03-15 13:05:49:427
12.469003,1.340753,2.806004,0.0,49.836983,24.031557,323.0,NaN,4.356,15.0,97.4,11 / 11,186527,2020-03-15 13:05:49:927
16.160862,1.225831,-2.475604,0.0,49.836983,24.031557,323.0,NaN,4.356,15.0,97.4,11 / 11,187027,2020-03-15 13:05:50:427
11.779472,2.8491,2.092532,0.0,49.836983,24.031557,323.0,NaN,4.356,15.0,97.4,11 / 11,187527,2020-03-15 13:05:50:927
5.252879,-1.838747,1.316811,0.0,49.836983,24.031557,323.0,NaN,4.356,15.0,97.4,11 / 11,188028,2020-03-15 13:05:51:428
5.913678,-2.8491,-0.699107,0.0,49.836983,24.031557,323.0,NaN,4.356,15.0,97.4,11 / 11,188527,2020-03-15 13:05:51:927
9.44752,0.258574,0.45011,0.0,49.836983,24.031557,323.0,NaN,4.356,15.0,97.4,11 / 11,189027,2020-03-15 13:05:52:427
7.283162,-2.762909,9.174581,0.0,49.836983,24.031557,323.0,NaN,4.356,15.0,97.4,11 / 11,189528,2020-03-15 13:05:52:928
11.860875,-0.320823,2.169147,0.0,49.836983,24.031557,323.0,NaN,4.356,15.0,97.4,11 / 11,190028,2020-03-15 13:05:53:428
17.18558,1.58975,-1.958457,0.0,49.836983,24.031557,323.0,NaN,4.356,15.0,97.4,11 / 11,190527,2020-03-15 13:05:53:927
13.402741,0.507571,1.867477,0.0,49.836983,24.031557,323.0,NaN,4.356,15.0,97.4,11 / 11,191028,2020-03-15 13:05:54:428
14.312538,-2.1883,-2.293645,0.0,49.836983,24.031557,323.0,NaN,4.356,15.0,97.4,11 / 11,191528,2020-03-15 13:05:54:928
10.85531,1.082179,2.604892,0.0,49.836983,24.031557,323.0,NaN,4.356,15.0,97.4,11 / 11,192028,2020-03-15 13:05:55:428
6.373365,-1.934515,0.881066,0.0,49.836983,24.031557,323.0,NaN,4.356,15.0,97.4,11 / 11,192527,2020-03-15 13:05:55:927
5.032612,-2.178723,-0.248997,0.0,49.836983,24.031557,323.0,NaN,4.356,15.0,97.4,11 / 11,193027,2020-03-15 13:05:56:427
8.513782,-0.584185,0.703895,0.0,49.836983,24.031557,323.0,NaN,4.356,15.0,97.4,11 / 11,193527,2020-03-15 13:05:56:927
7.666234,-2.643199,8.341399,0.0,49.836983,24.031557,323.0,NaN,4.356,15.0,97.4,11 / 11,194027,2020-03-15 13:05:57:427
11.985373,-0.646434,4.304775,0.0,49.836983,24.031557,323.0,NaN,4.356,15.0,97.4,11 / 11,194527,2020-03-15 13:05:57:927
16.94616,1.005565,1.225831,0.0,49.836983,24.031557,323.0,NaN,4.356,15.0,97.4,11 / 11,195028,2020-03-15 13:05:58:428
10.807426,2.422932,2.82037,0.0,49.836983,24.031557,323.0,NaN,4.356,15.0,97.4,11 / 11,195528,2020-03-15 13:05:58:928
15.490485,1.221043,-2.882619,0.0,49.836983,24.031557,323.0,NaN,4.356,15.0,97.4,11 / 11,196028,2020-03-15 13:05:59:428
11.583148,1.513135,3.069367,0.0,49.836983,24.031557,323.0,NaN,4.356,15.0,97.4,11 / 11,196527,2020-03-15 13:05:59:927
6.488287,-2.264915,1.312023,0.0,49.836983,24.031557,323.0,NaN,4.356,15.0,97.4,11 / 11,197027,2020-03-15 13:06:00:427
5.923255,-2.030283,-0.421379,0.0,49.836983,24.031557,323.0,NaN,4.356,15.0,97.4,11 / 11,197527,2020-03-15 13:06:00:927
10.548853,-2.164358,0.703895,0.0,49.836983,24.031557,323.0,NaN,4.356,15.0,97.4,11 / 11,198027,2020-03-15 13:06:01:427
7.163452,-3.236961,3.576938,0.0,49.836983,24.031557,323.0,NaN,4.356,15.0,97.4,11 / 11,198527,2020-03-15 13:06:01:927
13.292608,0.316035,3.011906,0.0,49.836983,24.031557,323.0,NaN,4.356,15.0,97.4,11 / 11,199027,2020-03-15 13:06:02:427
12.291832,-3.040636,3.337517,0.0,49.836983,24.031557,323.0,NaN,4.356,15.0,97.4,11 / 11,199527,2020-03-15 13:06:02:927
9.361329,2.178724,2.15957,0.0,49.836983,24.031557,323.0,NaN,4.356,15.0,97.4,11 / 11,200027,2020-03-15 13:06:03:427
4.429273,-1.288081,1.848324,0.0,49.836983,24.031557,323.0,NaN,4.356,15.0,97.4,11 / 11,200528,2020-03-15 13:06:03:928
8.99741,1.599327,2.27928,0.0,49.836983,24.031557,323.0,NaN,4.356,15.0,97.4,11 / 11,201028,2020-03-15 13:06:04:428
4.165911,-1.455675,1.786075,0.0,49.836983,24.031557,323.0,NaN,4.356,15.0,97.4,11 / 11,201528,2020-03-15 13:06:04:928
6.325481,-1.977611,0.282516,0.0,49.836983,24.031557,323.0,NaN,4.356,15.0,97.4,11 / 11,202027,2020-03-15 13:06:05:427
11.3964,-4.884171,2.011129,0.0,49.836983,24.031557,323.0,NaN,4.356,15.0,97.4,11 / 11,202527,2020-03-15 13:06:05:927
11.085154,-0.790087,7.005434,0.0,49.836983,24.031557,323.0,NaN,4.356,15.0,97.4,11 / 11,203027,2020-03-15 13:06:06:427
13.785813,-0.105345,3.53863,0.0,49.836983,24.031557,323.0,NaN,4.356,15.0,97.4,11 / 11,203527,2020-03-15 13:06:06:927
12.952631,-2.571372,3.845088,0.0,49.836983,24.031557,323.0,NaN,4.356,15.0,97.4,11 / 11,204027,2020-03-15 13:06:07:427
6.895301,0.972046,3.002329,0.0,49.836983,24.031557,323.0,NaN,4.356,15.0,97.4,11 / 11,204528,2020-03-15 13:06:07:928
3.169923,0.220267,3.787627,0.0,49.836983,24.031557,323.0,NaN,4.356,15.0,97.4,11 / 11,205028,2020-03-15 13:06:08:428
5.923255,-0.143652,3.078944,0.0,49.836983,24.031557,323.0,NaN,4.356,15.0,97.4,11 / 11,205528,2020-03-15 13:06:08:928
7.359776,2.145205,2.537854,0.0,49.836983,24.031557,323.0,NaN,4.356,15.0,97.4,11 / 11,206027,2020-03-15 13:06:09:427
5.372589,0.272939,11.841722,0.0,49.836983,24.031557,323.0,NaN,4.356,15.0,97.4,11 / 11,206527,2020-03-15 13:06:09:927
7.158664,-1.192312,8.025364,0.0,49.836983,24.031557,323.0,NaN,4.356,15.0,97.4,11 / 11,207027,2020-03-15 13:06:10:427
15.184027,1.086968,3.983952,0.0,49.836983,24.031557,323.0,NaN,4.356,15.0,97.4,11 / 11,207527,2020-03-15 13:06:10:927
13.335704,2.111686,4.280833,0.0,49.836983,24.031557,323.0,NaN,4.356,15.0,97.4,11 / 11,208028,2020-03-15 13:06:11:428
11.104307,-0.818817,0.6608,0.0,49.836983,24.031557,323.0,NaN,4.356,15.0,97.4,11 / 11,208528,2020-03-15 13:06:11:928
5.252879,-0.186748,3.102886,0.0,49.836983,24.031557,323.0,NaN,4.356,15.0,97.4,11 / 11,209028,2020-03-15 13:06:12:428
3.41892,1.393425,3.60088,0.0,49.836983,24.031557,323.0,NaN,4.356,15.0,97.4,11 / 11,209527,2020-03-15 13:06:12:927
10.884041,1.01993,4.003105,0.0,49.836983,24.031557,323.0,NaN,4.356,15.0,97.4,11 / 11,210027,2020-03-15 13:06:13:427
6.526594,1.781286,2.327164,0.0,49.836983,24.031557,323.0,NaN,4.356,15.0,97.4,11 / 11,210527,2020-03-15 13:06:13:927
7.896077,-1.474828,7.805098,0.0,49.836983,24.031557,323.0,NaN,4.356,15.0,97.4,11 / 11,211027,2020-03-15 13:06:14:427
7.632715,-2.719813,12.665327,0.0,49.836983,24.031557,323.0,NaN,4.356,15.0,97.4,11 / 11,211528,2020-03-15 13:06:14:928
17.415422,0.818817,3.409343,0.0,49.836983,24.031557,323.0,NaN,4.356,15.0,97.4,11 / 11,212028,2020-03-15 13:06:15:428
12.583924,2.671929,3.950433,0.0,49.836983,24.031557,323.0,NaN,4.356,15.0,97.4,11 / 11,212528,2020-03-15 13:06:15:928
7.302315,-2.097321,0.565032,0.0,49.836983,24.031557,323.0,NaN,4.356,15.0,97.4,11 / 11,213028,2020-03-15 13:06:16:428
4.31914,-1.517924,2.571373,0.0,49.836983,24.031557,323.0,NaN,4.356,15.0,97.4,11 / 11,213527,2020-03-15 13:06:16:927
6.464345,2.001553,3.007117,0.0,49.836983,24.031557,323.0,NaN,4.356,15.0,97.4,11 / 11,214027,2020-03-15 13:06:17:427
9.835381,-0.656011,6.435614,0.0,49.836983,24.031557,323.0,NaN,4.356,15.0,97.4,11 / 11,214527,2020-03-15 13:06:17:927
7.010223,-2.044648,12.291832,0.0,49.836983,24.031557,323.0,NaN,4.356,15.0,97.4,11 / 11,215027,2020-03-15 13:06:18:427
16.82645,0.9912,2.073379,0.0,49.836983,24.031557,323.0,NaN,4.356,15.0,97.4,11 / 11,215527,2020-03-15 13:06:18:927
10.82658,1.446098,1.963245,0.0,49.836983,24.031557,323.0,NaN,4.356,15.0,97.4,0 / 0,216027,2020-03-15 13:06:19:427
16.457743,0.981623,-1.426944,0.0,49.836983,24.031557,323.0,NaN,4.356,15.0,97.4,0 / 2,216527,2020-03-15 13:06:19:927
9.859323,1.158794,1.886631,0.0,49.836983,24.031557,323.0,NaN,4.356,15.0,97.4,0 / 2,217027,2020-03-15 13:06:20:427
4.113238,-1.221043,2.619257,0.0,49.836983,24.031557,323.0,NaN,4.356,15.0,97.4,0 / 4,217527,2020-03-15 13:06:20:927
8.959103,1.063026,2.810793,0.0,49.836983,24.031557,323.0,NaN,4.356,15.0,97.4,0 / 4,218027,2020-03-15 13:06:21:427
9.763555,-3.155558,8.374918,0.0,49.836983,24.031557,323.0,NaN,4.356,15.0,97.4,10 / 10,218527,2020-03-15 13:06:21:927
3.792416,-3.797204,3.251326,0.0,49.836983,24.031557,323.0,NaN,4.356,15.0,97.4,10 / 10,219027,2020-03-15 13:06:22:427
13.536817,0.464475,4.022259,0.0,49.83626,24.032232,315.0,NaN,1.656,17.5,0.0,10 / 13,219527,2020-03-15 13:06:22:927
12.018892,0.129287,0.699107,0.0,49.83626,24.032232,315.0,NaN,1.656,17.5,0.0,10 / 13,220028,2020-03-15 13:06:23:428
5.214572,-0.952892,2.327164,0.0,49.83626,24.032232,315.0,NaN,1.656,17.5,0.0,10 / 13,220528,2020-03-15 13:06:23:928
8.499416,0.110133,1.158794,0.0,49.83626,24.032232,315.0,NaN,1.656,17.5,0.0,10 / 13,221028,2020-03-15 13:06:24:428
5.722142,-2.044648,-0.407014,0.0,49.83626,24.032232,315.0,NaN,1.656,17.5,0.0,10 / 13,221527,2020-03-15 13:06:24:927
9.107543,0.536301,0.54109,0.0,49.83626,24.032232,315.0,NaN,1.656,17.5,0.0,10 / 13,222027,2020-03-15 13:06:25:427
7.25922,-1.508347,10.189722,0.0,49.83626,24.032232,315.0,NaN,1.656,17.5,0.0,10 / 13,222527,2020-03-15 13:06:25:927
14.015656,2.102109,4.055778,0.0,49.83626,24.032232,315.0,NaN,1.656,17.5,0.0,10 / 13,223028,2020-03-15 13:06:26:428
12.650962,-1.091756,1.053449,0.0,49.83626,24.032232,315.0,NaN,1.656,17.5,0.0,10 / 13,223528,2020-03-15 13:06:26:928
7.149087,1.465252,2.059013,0.0,49.83626,24.032232,315.0,NaN,1.656,17.5,0.0,10 / 13,224028,2020-03-15 13:06:27:428
5.358224,1.517924,3.002329,0.0,49.83626,24.032232,315.0,NaN,1.656,17.5,0.0,10 / 13,224528,2020-03-15 13:06:27:928
8.485051,-0.924162,7.398083,0.0,49.83626,24.032232,315.0,NaN,1.656,17.5,0.0,10 / 13,225028,2020-03-15 13:06:28:428
12.157756,0.062249,1.374272,0.0,49.83626,24.032232,315.0,NaN,1.656,17.5,0.0,10 / 13,225527,2020-03-15 13:06:28:927
15.86398,0.703895,3.624822,0.0,49.83626,24.032232,315.0,NaN,1.656,17.5,0.0,10 / 13,226027,2020-03-15 13:06:29:427
10.218452,-1.484405,3.96001,0.0,49.83626,24.032232,315.0,NaN,1.656,17.5,0.0,10 / 13,226527,2020-03-15 13:06:29:927
13.594277,0.545878,-1.891419,0.0,49.83626,24.032232,315.0,NaN,1.656,17.5,0.0,10 / 13,227027,2020-03-15 13:06:30:427
7.469909,1.082179,1.436521,0.0,49.83626,24.032232,315.0,NaN,1.656,17.5,0.0,10 / 13,227527,2020-03-15 13:06:30:927
8.647857,1.029507,1.177947,0.0,49.83626,24.032232,315.0,NaN,1.656,17.5,0.0,10 / 13,228027,2020-03-15 13:06:31:427
6.919243,-1.431733,8.480263,0.0,49.83626,24.032232,315.0,NaN,1.656,17.5,0.0,10 / 13,228528,2020-03-15 13:06:31:928
12.852075,-1.403002,3.074155,0.0,49.83626,24.032232,315.0,NaN,1.656,17.5,0.0,10 / 13,229028,2020-03-15 13:06:32:428
15.998055,-0.646434,-2.681506,0.0,49.83626,24.032232,315.0,NaN,1.656,17.5,0.0,10 / 13,229528,2020-03-15 13:06:32:928
10.534488,2.341529,1.556231,0.0,49.83626,24.032232,315.0,NaN,1.656,17.5,0.0,10 / 13,230028,2020-03-15 13:06:33:428
17.554285,0.828394,-2.078167,0.0,49.83626,24.032232,315.0,NaN,1.656,17.5,0.0,10 / 13,230528,2020-03-15 13:06:33:928
13.699622,4.089296,3.347094,0.0,49.83626,24.032232,315.0,NaN,1.656,17.5,0.0,10 / 13,231028,2020-03-15 13:06:34:428
9.332599,-1.393425,0.02873,0.0,49.83626,24.032232,315.0,NaN,1.656,17.5,0.0,10 / 13,231527,2020-03-15 13:06:34:927
5.233725,-0.876278,1.843535,0.0,49.83626,24.032232,315.0,NaN,1.656,17.5,0.0,10 / 13,232027,2020-03-15 13:06:35:427
2.777274,-0.110133,1.551443,0.0,49.83626,24.032232,315.0,NaN,1.656,17.5,0.0,10 / 13,232527,2020-03-15 13:06:35:927
5.252879,-0.483629,-0.292093,0.0,49.83626,24.032232,315.0,NaN,1.656,17.5,0.0,10 / 13,233027,2020-03-15 13:06:36:427
11.238382,-3.806781,1.240197,0.0,49.83626,24.032232,315.0,NaN,1.656,17.5,0.0,10 / 13,233527,2020-03-15 13:06:36:927
8.101979,-2.628833,7.426814,0.0,49.83626,24.032232,315.0,NaN,1.656,17.5,0.0,10 / 13,234027,2020-03-15 13:06:37:427
12.378023,0.09098,5.133168,0.0,49.83626,24.032232,315.0,NaN,1.656,17.5,0.0,10 / 13,234528,2020-03-15 13:06:37:928
8.432379,-2.403778,8.42759,0.0,49.83626,24.032232,315.0,NaN,1.656,17.5,0.0,10 / 13,235028,2020-03-15 13:06:38:428
11.961432,-0.651223,7.603985,0.0,49.83626,24.032232,315.0,NaN,1.656,17.5,0.0,10 / 13,235528,2020-03-15 13:06:38:928
18.550274,2.173935,-1.331176,0.0,49.83626,24.032232,315.0,NaN,1.656,17.5,0.0,10 / 13,236028,2020-03-15 13:06:39:428
12.856863,3.294422,2.710236,0.0,49.83626,24.032232,315.0,NaN,1.656,17.5,0.0,10 / 13,236528,2020-03-15 13:06:39:928
7.575254,-1.077391,0.814029,0.0,49.83626,24.032232,315.0,NaN,1.656,17.5,0.0,10 / 13,237028,2020-03-15 13:06:40:428
4.721366,-2.135628,-0.158017,0.0,49.83626,24.032232,315.0,NaN,1.656,17.5,0.0,10 / 13,237528,2020-03-15 13:06:40:928
8.456321,1.177947,-0.114922,0.0,49.83626,24.032232,315.0,NaN,1.656,17.5,0.0,10 / 13,238028,2020-03-15 13:06:41:428
8.805874,-1.867477,10.869676,0.0,49.83626,24.032232,315.0,NaN,1.656,17.5,0.0,10 / 13,238528,2020-03-15 13:06:41:928
8.552089,1.857901,-0.292093,0.0,49.83626,24.032232,315.0,NaN,1.656,17.5,0.0,10 / 13,239028,2020-03-15 13:06:42:428
9.313444,-1.225831,6.986281,0.0,49.83626,24.032232,315.0,NaN,1.656,17.5,0.0,10 / 13,239528,2020-03-15 13:06:42:928
11.731588,-0.392649,2.834735,0.0,49.83626,24.032232,315.0,NaN,1.656,17.5,0.0,10 / 13,240028,2020-03-15 13:06:43:428
16.31409,1.939303,-2.772485,0.0,49.83626,24.032232,315.0,NaN,1.656,17.5,0.0,10 / 13,240528,2020-03-15 13:06:43:928
11.042058,3.160346,0.608127,0.0,49.83626,24.032232,315.0,NaN,1.656,17.5,0.0,10 / 13,241028,2020-03-15 13:06:44:428
7.469909,-1.814805,0.584185,0.0,49.83626,24.032232,315.0,NaN,1.656,17.5,0.0,10 / 13,241528,2020-03-15 13:06:44:928
4.165911,-1.70946,1.446098,0.0,49.83626,24.032232,315.0,NaN,1.656,17.5,0.0,10 / 13,242028,2020-03-15 13:06:45:428
7.388507,1.005565,0.368707,0.0,49.83626,24.032232,315.0,NaN,1.656,17.5,0.0,10 / 13,242528,2020-03-15 13:06:45:928
9.552865,-0.531513,7.680599,0.0,49.83626,24.032232,315.0,NaN,1.656,17.5,0.0,10 / 13,243027,2020-03-15 13:06:46:427
9.797073,-1.714248,4.132392,0.0,49.83626,24.032232,315.0,NaN,1.656,17.5,0.0,10 / 13,243527,2020-03-15 13:06:46:927
15.859192,1.747767,0.536301,0.0,49.83626,24.032232,315.0,NaN,1.656,17.5,0.0,10 / 13,244028,2020-03-15 13:06:47:428
9.782708,-0.799663,4.050989,0.0,49.83626,24.032232,315.0,NaN,1.656,17.5,0.0,10 / 13,244528,2020-03-15 13:06:47:928
16.275784,2.135628,-2.442086,0.0,49.83626,24.032232,315.0,NaN,1.656,17.5,0.0,10 / 13,245028,2020-03-15 13:06:48:428
9.744401,2.561796,1.771709,0.0,49.83626,24.032232,315.0,NaN,1.656,17.5,0.0,10 / 13,245527,2020-03-15 13:06:48:927
4.778827,-1.067814,1.283292,0.0,49.83626,24.032232,315.0,NaN,1.656,17.5,0.0,10 / 13,246027,2020-03-15 13:06:49:427
6.052542,-2.03986,-0.081403,0.0,49.83626,24.032232,315.0,NaN,1.656,17.5,0.0,10 / 13,246528,2020-03-15 13:06:49:928
11.099519,-2.351106,-0.675165,0.0,49.83626,24.032232,315.0,NaN,1.656,17.5,0.0,10 / 13,247028,2020-03-15 13:06:50:428
9.495404,-3.500323,3.471593,0.0,49.83626,24.032232,315.0,NaN,1.656,17.5,0.0,10 / 13,247528,2020-03-15 13:06:50:928
14.365211,1.527501,2.777274,0.0,49.83626,24.032232,315.0,NaN,1.656,17.5,0.0,10 / 13,248028,2020-03-15 13:06:51:428
7.728483,-4.012682,4.036624,0.0,49.83626,24.032232,315.0,NaN,1.656,17.5,0.0,10 / 13,248528,2020-03-15 13:06:51:928
13.144167,3.026271,2.561796,0.0,49.83626,24.032232,315.0,NaN,1.656,17.5,0.0,10 / 13,249028,2020-03-15 13:06:52:428
15.279796,-2.561796,-0.493206,0.0,49.83626,24.032232,315.0,NaN,1.656,17.5,0.0,10 / 13,249528,2020-03-15 13:06:52:928
6.938397,1.182736,1.910573,0.0,49.83626,24.032232,315.0,NaN,1.656,17.5,0.0,10 / 13,250027,2020-03-15 13:06:53:427
4.692636,-0.373495,1.086968,0.0,49.83626,24.032232,315.0,NaN,1.656,17.5,0.0,10 / 13,250528,2020-03-15 13:06:53:928
9.509769,2.375048,2.566584,0.0,49.83626,24.032232,315.0,NaN,1.656,17.5,0.0,10 / 13,251028,2020-03-15 13:06:54:428
9.14585,-2.528277,6.392519,0.0,49.83626,24.032232,315.0,NaN,1.656,17.5,0.0,10 / 13,251528,2020-03-15 13:06:54:928
13.747506,-0.114922,3.318364,0.0,49.83626,24.032232,315.0,NaN,1.656,17.5,0.0,10 / 13,252028,2020-03-15 13:06:55:428
10.515334,2.059013,3.241749,0.0,49.83626,24.032232,315.0,NaN,1.656,17.5,0.0,10 / 13,252528,2020-03-15 13:06:55:928
7.192182,-1.843535,0.215478,0.0,49.83626,24.032232,315.0,NaN,1.656,17.5,0.0,10 / 13,253027,2020-03-15 13:06:56:427
6.493075,-1.977611,0.167594,0.0,49.83626,24.032232,315.0,NaN,1.656,17.5,0.0,10 / 13,253527,2020-03-15 13:06:56:927
1.814805,-0.172383,2.351106,0.0,49.83626,24.032232,315.0,NaN,1.656,17.5,0.0,10 / 13,254027,2020-03-15 13:06:57:427
7.350199,-1.489193,-0.033519,0.0,49.83626,24.032232,315.0,NaN,1.656,17.5,0.0,10 / 13,254527,2020-03-15 13:06:57:927
11.932701,-3.720589,1.513135,0.0,49.83626,24.032232,315.0,NaN,1.656,17.5,0.0,10 / 13,255027,2020-03-15 13:06:58:427
10.491392,-1.273715,5.54976,0.0,49.83626,24.032232,315.0,NaN,1.656,17.5,0.0,10 / 13,255527,2020-03-15 13:06:58:927
14.700398,2.006341,3.462016,0.0,49.83626,24.032232,315.0,NaN,1.656,17.5,0.0,10 / 13,256027,2020-03-15 13:06:59:427
13.431472,-1.690306,1.278504,0.0,49.83626,24.032232,315.0,NaN,1.656,17.5,0.0,10 / 13,256527,2020-03-15 13:06:59:927
6.402096,0.80924,2.183512,0.0,49.83626,24.032232,315.0,NaN,1.656,17.5,0.0,10 / 13,257027,2020-03-15 13:07:00:427
4.702213,0.56982,2.427721,0.0,49.83626,24.032232,315.0,NaN,1.656,17.5,0.0,10 / 13,257527,2020-03-15 13:07:00:927
5.262456,-0.565032,2.236184,0.0,49.83626,24.032232,315.0,NaN,1.656,17.5,0.0,10 / 13,258027,2020-03-15 13:07:01:427
5.051766,1.642422,2.734178,0.0,49.83626,24.032232,315.0,NaN,1.656,17.5,0.0,10 / 13,258527,2020-03-15 13:07:01:927
10.16578,1.292869,5.046977,0.0,49.83626,24.032232,315.0,NaN,1.656,17.5,0.0,10 / 13,259027,2020-03-15 13:07:02:427
10.850522,-2.485181,11.96622,0.0,49.83626,24.032232,315.0,NaN,1.656,17.5,0.0,10 / 13,259527,2020-03-15 13:07:02:927
5.57849,-4.673482,2.121263,0.0,49.83626,24.032232,315.0,NaN,1.656,17.5,0.0,10 / 13,260027,2020-03-15 13:07:03:427
15.591042,3.007117,3.241749,0.0,49.83626,24.032232,315.0,NaN,1.656,17.5,0.0,10 / 13,260527,2020-03-15 13:07:03:927
11.013328,-0.641646,0.617704,0.0,49.83626,24.032232,315.0,NaN,1.656,17.5,0.0,10 / 13,261027,2020-03-15 13:07:04:427
4.237737,-0.842759,2.351106,0.0,49.83626,24.032232,315.0,NaN,1.656,17.5,0.0,10 / 13,261527,2020-03-15 13:07:04:927
5.980716,1.297657,1.963245,0.0,49.83626,24.032232,315.0,NaN,1.656,17.5,0.0,10 / 13,262028,2020-03-15 13:07:05:428
9.002198,0.301669,5.904102,0.0,49.83626,24.032232,315.0,NaN,1.656,17.5,0.0,10 / 13,262527,2020-03-15 13:07:05:927
8.37013,-1.599327,10.022128,0.0,49.83626,24.032232,315.0,NaN,1.656,17.5,0.0,10 / 13,263027,2020-03-15 13:07:06:427
8.259996,-1.924938,9.030929,0.0,49.83626,24.032232,315.0,NaN,1.656,17.5,0.0,10 / 13,263527,2020-03-15 13:07:06:927
10.228029,-0.890643,5.6982,0.0,49.83626,24.032232,315.0,NaN,1.656,17.5,0.0,10 / 13,264027,2020-03-15 13:07:07:427
16.500837,1.316811,-0.574608,0.0,49.83626,24.032232,315.0,NaN,1.656,17.5,0.0,10 / 13,264527,2020-03-15 13:07:07:927
9.610326,2.523489,1.316811,0.0,49.83626,24.032232,315.0,NaN,1.656,17.5,0.0,10 / 13,265027,2020-03-15 13:07:08:427
6.703765,-1.077391,0.42138,0.0,49.83626,24.032232,315.0,NaN,1.656,17.5,0.0,10 / 13,265527,2020-03-15 13:07:08:927
5.544971,-2.336741,-0.277727,0.0,49.83626,24.032232,315.0,NaN,1.656,17.5,0.0,10 / 13,266027,2020-03-15 13:07:09:427
8.528147,1.115698,-0.148441,0.0,49.83626,24.032232,315.0,NaN,1.656,17.5,0.0,10 / 13,266527,2020-03-15 13:07:09:927
7.019799,-2.446874,10.749966,0.0,49.83626,24.032232,315.0,NaN,1.656,17.5,0.0,10 / 13,267027,2020-03-15 13:07:10:427
14.60463,1.915361,0.56982,0.0,49.83626,24.032232,315.0,NaN,1.656,17.5,0.0,10 / 13,267527,2020-03-15 13:07:10:927
13.895947,-0.761356,-0.651223,0.0,49.83626,24.032232,315.0,NaN,1.656,17.5,0.0,10 / 13,268027,2020-03-15 13:07:11:427
8.523358,1.632846,0.842759,0.0,49.83626,24.032232,315.0,NaN,1.656,17.5,0.0,10 / 13,268527,2020-03-15 13:07:11:927
4.912902,-0.823605,1.283292,0.0,49.83626,24.032232,315.0,NaN,1.656,17.5,0.0,10 / 13,269027,2020-03-15 13:07:12:427
7.067683,1.900996,0.675165,0.0,49.83626,24.032232,315.0,NaN,1.656,17.5,0.0,10 / 13,269527,2020-03-15 13:07:12:927
3.39019,-0.536301,1.225831,0.0,49.83626,24.032232,315.0,NaN,1.656,17.5,0.0,10 / 13,270027,2020-03-15 13:07:13:427
8.111555,0.071826,2.097321,0.0,49.83626,24.032232,315.0,NaN,1.656,17.5,0.0,10 / 13,270527,2020-03-15 13:07:13:927
14.15452,-3.131616,4.046201,0.0,49.83626,24.032232,315.0,NaN,1.656,17.5,0.0,10 / 13,271027,2020-03-15 13:07:14:427
3.739743,-5.956774,7.881712,0.0,49.83626,24.032232,315.0,NaN,1.656,17.5,0.0,10 / 13,271527,2020-03-15 13:07:14:927
14.480132,1.537078,1.824382,0.0,49.83626,24.032232,315.0,NaN,1.656,17.5,0.0,10 / 13,272028,2020-03-15 13:07:15:428
11.468226,0.392649,-1.795651,0.0,49.83626,24.032232,315.0,NaN,1.656,17.5,0.0,10 / 13,272528,2020-03-15 13:07:15:928
5.329493,-0.234632,2.671929,0.0,49.83626,24.032232,315.0,NaN,1.656,17.5,0.0,10 / 13,273027,2020-03-15 13:07:16:427
4.951209,0.814029,1.838747,0.0,49.83626,24.032232,315.0,NaN,1.656,17.5,0.0,10 / 13,273527,2020-03-15 13:07:16:927
4.280833,-2.873042,0.282516,0.0,49.83626,24.032232,315.0,NaN,1.656,17.5,0.0,10 / 13,274027,2020-03-15 13:07:17:427
8.853758,0.378284,2.063802,0.0,49.83626,24.032232,315.0,NaN,1.656,17.5,0.0,10 / 13,274527,2020-03-15 13:07:17:927
7.273585,-4.520252,4.314352,0.0,49.83626,24.032232,315.0,NaN,1.656,17.5,0.0,10 / 13,275027,2020-03-15 13:07:18:427
16.697163,1.043872,4.132392,0.0,49.83626,24.032232,315.0,NaN,1.656,17.5,0.0,10 / 13,275527,2020-03-15 13:07:18:927
12.880805,-2.264915,0.68953,0.0,49.83626,24.032232,315.0,NaN,1.656,17.5,0.0,10 / 13,276027,2020-03-15 13:07:19:427
6.291962,0.23942,2.025495,0.0,49.83626,24.032232,315.0,NaN,1.656,17.5,0.0,10 / 13,276527,2020-03-15 13:07:19:927
5.410896,2.5187,2.39899,0.0,49.83626,24.032232,315.0,NaN,1.656,17.5,0.0,10 / 13,277027,2020-03-15 13:07:20:427
11.444284,1.623269,3.873819,0.0,49.83626,24.032232,315.0,NaN,1.656,17.5,0.0,10 / 13,277527,2020-03-15 13:07:20:927
8.75799,-2.60968,12.555194,0.0,49.83626,24.032232,315.0,NaN,1.656,17.5,0.0,10 / 13,278028,2020-03-15 13:07:21:428
14.78659,-2.102109,4.10845,0.0,49.83626,24.032232,315.0,NaN,1.656,17.5,0.0,10 / 13,278528,2020-03-15 13:07:21:928
12.583924,-6.081272,11.267113,0.0,49.83626,24.032232,315.0,NaN,1.656,17.5,0.0,0 / 0,279028,2020-03-15 13:07:22:428
15.902287,-6.205771,8.078037,8.0,49.83626,24.032232,315.0,NaN,1.656,17.5,0.0,0 / 2,279528,2020-03-15 13:07:22:928
0.3304,-6.397307,1.149217,8.0,49.83626,24.032232,315.0,NaN,1.656,17.5,0.0,0 / 2,280027,2020-03-15 13:07:23:427
10.500969,-5.741296,-0.857124,8.0,49.83626,24.032232,315.0,NaN,1.656,17.5,0.0,0 / 4,280527,2020-03-15 13:07:23:927
4.01747,-5.621585,0.263362,8.0,49.83626,24.032232,315.0,NaN,1.656,17.5,0.0,0 / 4,281027,2020-03-15 13:07:24:427
6.497864,0.134075,-3.280056,8.0,49.83626,24.032232,315.0,NaN,1.656,17.5,0.0,0 / 9,281527,2020-03-15 13:07:24:927
8.595184,-6.876147,1.987187,8.0,49.83626,24.032232,315.0,NaN,1.656,17.5,0.0,0 / 9,282027,2020-03-15 13:07:25:427
10.907983,-6.98628,-1.833958,8.0,49.836605,24.031796,319.0,NaN,6.804,13.5,118.8,14 / 14,282527,2020-03-15 13:07:25:927
13.977349,-9.088389,-1.953669,8.0,49.836605,24.031796,319.0,NaN,6.804,13.5,118.8,14 / 14,283027,2020-03-15 13:07:26:427
5.956774,-5.78918,4.620809,8.0,49.836605,24.031796,319.0,NaN,6.804,13.5,118.8,14 / 14,283527,2020-03-15 13:07:26:927
14.326903,-7.632715,-3.533841,8.0,49.836605,24.031796,319.0,NaN,6.804,13.5,118.8,14 / 14,284027,2020-03-15 13:07:27:427
6.785168,-5.310339,2.346318,8.0,49.836605,24.031796,319.0,NaN,6.804,13.5,118.8,14 / 14,284527,2020-03-15 13:07:27:927
8.461109,-3.907337,-1.063026,8.0,49.836605,24.031796,319.0,NaN,6.804,13.5,118.8,14 / 14,285027,2020-03-15 13:07:28:427
5.664682,-3.471592,-0.531513,8.0,49.836605,24.031796,319.0,NaN,6.804,13.5,118.8,14 / 14,285527,2020-03-15 13:07:28:927
7.723695,-0.933739,-1.302446,8.0,49.836605,24.031796,319.0,NaN,6.804,13.5,118.8,14 / 14,286027,2020-03-15 13:07:29:427
9.045294,-7.508216,-0.033519,8.0,49.836605,24.031796,319.0,NaN,6.804,13.5,118.8,14 / 14,286527,2020-03-15 13:07:29:927
8.451532,-5.875371,-1.316811,8.0,49.836605,24.031796,319.0,NaN,6.804,13.5,118.8,14 / 14,287027,2020-03-15 13:07:30:427
14.93503,-7.10599,-2.312799,8.0,49.836605,24.031796,319.0,NaN,6.804,13.5,118.8,14 / 14,287527,2020-03-15 13:07:30:927
6.047754,-8.451532,2.245761,8.0,49.836605,24.031796,319.0,NaN,6.804,13.5,118.8,14 / 14,288027,2020-03-15 13:07:31:427
18.497602,-2.394202,-3.213019,8.0,49.836605,24.031796,319.0,NaN,6.804,13.5,118.8,14 / 14,288527,2020-03-15 13:07:31:927
4.247314,-5.827487,-0.215478,8.0,49.836605,24.031796,319.0,NaN,6.804,13.5,118.8,14 / 14,289028,2020-03-15 13:07:32:428
5.57849,-4.10845,-3.280056,8.0,49.836605,24.031796,319.0,NaN,6.804,13.5,118.8,14 / 14,289528,2020-03-15 13:07:32:928
5.420473,-3.117251,-3.347094,8.0,49.836605,24.031796,319.0,NaN,6.804,13.5,118.8,14 / 14,290028,2020-03-15 13:07:33:428
7.417237,0.014365,-5.60722,8.0,49.836605,24.031796,319.0,NaN,6.804,13.5,118.8,14 / 14,290527,2020-03-15 13:07:33:927
7.896077,-10.012551,1.01993,8.0,49.836605,24.031796,319.0,NaN,6.804,13.5,118.8,14 / 14,291027,2020-03-15 13:07:34:427
13.067553,-7.450755,-0.823605,8.0,49.836605,24.031796,319.0,NaN,6.804,13.5,118.8,14 / 14,291527,2020-03-15 13:07:34:927
9.11712,-8.475474,-0.148441,8.0,49.836605,24.031796,319.0,NaN,6.804,13.5,118.8,14 / 14,292027,2020-03-15 13:07:35:427
12.129025,-7.125144,0.229843,8.0,49.836605,24.031796,319.0,NaN,6.804,13.5,118.8,14 / 14,292527,2020-03-15 13:07:35:927
14.279019,-6.775591,-1.16837,8.0,49.836605,24.031796,319.0,NaN,6.804,13.5,118.8,14 / 14,293027,2020-03-15 13:07:36:427
3.950433,-8.360553,0.967258,8.0,49.836605,24.031796,319.0,NaN,6.804,13.5,118.8,14 / 14,293527,2020-03-15 13:07:36:927
6.593632,-3.562572,-1.900996,8.0,49.836605,24.031796,319.0,NaN,6.804,13.5,118.8,14 / 14,294027,2020-03-15 13:07:37:427
4.807557,-3.706224,-0.785298,8.0,49.836605,24.031796,319.0,NaN,6.804,13.5,118.8,14 / 14,294527,2020-03-15 13:07:37:927
9.054871,-1.742979,0.234632,8.0,49.836605,24.031796,319.0,NaN,6.804,13.5,118.8,14 / 14,295027,2020-03-15 13:07:38:427
9.706094,-8.5473,-0.253785,8.0,49.836605,24.031796,319.0,NaN,6.804,13.5,118.8,14 / 14,295527,2020-03-15 13:07:38:927
11.784261,-5.013458,0.766145,8.0,49.836605,24.031796,319.0,NaN,6.804,13.5,118.8,14 / 14,296027,2020-03-15 13:07:39:427
11.257536,-8.259995,-0.517148,8.0,49.836605,24.031796,319.0,NaN,6.804,13.5,118.8,14 / 14,296528,2020-03-15 13:07:39:928
11.085154,-6.200982,-1.522712,8.0,49.836605,24.031796,319.0,NaN,6.804,13.5,118.8,14 / 14,297028,2020-03-15 13:07:40:428
15.313314,-4.089296,-0.847547,8.0,49.836605,24.031796,319.0,NaN,6.804,13.5,118.8,14 / 14,297527,2020-03-15 13:07:40:927
5.027824,-5.702988,-0.086191,8.0,49.836605,24.031796,319.0,NaN,6.804,13.5,118.8,14 / 14,298027,2020-03-15 13:07:41:427
6.071696,-3.442862,-0.296881,8.0,49.836605,24.031796,319.0,NaN,6.804,13.5,118.8,14 / 14,298527,2020-03-15 13:07:41:927
6.047754,-4.338293,0.335188,8.0,49.836605,24.031796,319.0,NaN,6.804,13.5,118.8,14 / 14,299028,2020-03-15 13:07:42:428
11.908759,-2.145205,-1.302446,8.0,49.836605,24.031796,319.0,NaN,6.804,13.5,118.8,14 / 14,299527,2020-03-15 13:07:42:927
10.108319,-8.394072,-1.316811,8.0,49.836605,24.031796,319.0,NaN,6.804,13.5,118.8,14 / 14,300027,2020-03-15 13:07:43:427
9.241618,-8.279149,-0.205901,8.0,49.836605,24.031796,319.0,NaN,6.804,13.5,118.8,14 / 14,300527,2020-03-15 13:07:43:927
17.750612,-3.457227,-0.948104,8.0,49.836605,24.031796,319.0,NaN,6.804,13.5,118.8,14 / 14,301027,2020-03-15 13:07:44:427
9.849746,-10.376471,-0.081403,8.0,49.836605,24.031796,319.0,NaN,6.804,13.5,118.8,14 / 14,301527,2020-03-15 13:07:44:927
14.432248,-6.325481,-0.852336,8.0,49.836605,24.031796,319.0,NaN,6.804,13.5,118.8,14 / 14,302027,2020-03-15 13:07:45:427
4.879383,-6.114791,0.148441,8.0,49.836605,24.031796,319.0,NaN,6.804,13.5,118.8,14 / 14,302527,2020-03-15 13:07:45:927
5.525818,-3.466804,-0.622492,8.0,49.836605,24.031796,319.0,NaN,6.804,13.5,118.8,14 / 14,303027,2020-03-15 13:07:46:427
6.0286,-4.371812,0.507571,8.0,49.836605,24.031796,319.0,NaN,6.804,13.5,118.8,14 / 14,303527,2020-03-15 13:07:46:927
12.440272,-4.88896,-0.766144,8.0,49.836605,24.031796,319.0,NaN,6.804,13.5,118.8,14 / 14,304027,2020-03-15 13:07:47:427
12.047623,-6.469133,-0.397437,8.0,49.836605,24.031796,319.0,NaN,6.804,13.5,118.8,14 / 14,304527,2020-03-15 13:07:47:927
6.143522,-8.892065,-1.091756,8.0,49.836605,24.031796,319.0,NaN,6.804,13.5,118.8,14 / 14,305027,2020-03-15 13:07:48:427
16.299725,-4.635174,-0.143652,8.0,49.836605,24.031796,319.0,NaN,6.804,13.5,118.8,14 / 14,305527,2020-03-15 13:07:48:927
3.442862,-5.765238,0.071826,8.0,49.836605,24.031796,319.0,NaN,6.804,13.5,118.8,14 / 14,306027,2020-03-15 13:07:49:427
4.161122,-3.409343,-0.220267,8.0,49.836605,24.031796,319.0,NaN,6.804,13.5,118.8,14 / 14,306527,2020-03-15 13:07:49:927
5.363012,-6.847417,-0.272939,8.0,49.836605,24.031796,319.0,NaN,6.804,13.5,118.8,14 / 14,307027,2020-03-15 13:07:50:427
5.272033,-2.911349,-0.277727,8.0,49.836605,24.031796,319.0,NaN,6.804,13.5,118.8,14 / 14,307527,2020-03-15 13:07:50:927
7.105991,-2.432509,-2.236184,8.0,49.836605,24.031796,319.0,NaN,6.804,13.5,118.8,14 / 14,308027,2020-03-15 13:07:51:427
10.596737,-1.455675,-1.991976,8.0,49.836605,24.031796,319.0,NaN,6.804,13.5,118.8,14 / 14,308527,2020-03-15 13:07:51:927
11.851298,-7.958326,-1.532289,8.0,49.836605,24.031796,319.0,NaN,6.804,13.5,118.8,14 / 14,309027,2020-03-15 13:07:52:427
11.314998,-7.273585,0.59855,8.0,49.836605,24.031796,319.0,NaN,6.804,13.5,118.8,14 / 14,309527,2020-03-15 13:07:52:927
13.982138,-7.249643,-1.934515,8.0,49.836605,24.031796,319.0,NaN,6.804,13.5,118.8,14 / 14,310027,2020-03-15 13:07:53:427
10.907983,-5.305551,0.68953,8.0,49.836605,24.031796,319.0,NaN,6.804,13.5,118.8,14 / 14,310527,2020-03-15 13:07:53:927
11.429919,-3.768473,-0.622492,8.0,49.836605,24.031796,319.0,NaN,6.804,13.5,118.8,14 / 14,311027,2020-03-15 13:07:54:427
4.41012,-4.328717,-0.277727,8.0,49.836605,24.031796,319.0,NaN,6.804,13.5,118.8,14 / 14,311527,2020-03-15 13:07:54:927
5.204995,-0.521936,-1.651999,8.0,49.836605,24.031796,319.0,NaN,6.804,13.5,118.8,14 / 14,312028,2020-03-15 13:07:55:428
7.70933,-5.57849,0.234632,8.0,49.836605,24.031796,319.0,NaN,6.804,13.5,118.8,14 / 14,312527,2020-03-15 13:07:55:927
14.614207,-5.406107,-6.023811,8.0,49.836605,24.031796,319.0,NaN,6.804,13.5,118.8,14 / 14,313027,2020-03-15 13:07:56:427
10.845734,-6.947973,-1.197101,8.0,49.836605,24.031796,319.0,NaN,6.804,13.5,118.8,14 / 14,313527,2020-03-15 13:07:56:927
8.571242,-10.630256,-0.828394,8.0,49.836605,24.031796,319.0,NaN,6.804,13.5,118.8,14 / 14,314027,2020-03-15 13:07:57:427
11.535264,-4.788403,-2.355894,8.0,49.836605,24.031796,319.0,NaN,6.804,13.5,118.8,14 / 14,314527,2020-03-15 13:07:57:927
7.220913,-9.65821,-0.785298,8.0,49.836605,24.031796,319.0,NaN,6.804,13.5,118.8,14 / 14,315027,2020-03-15 13:07:58:427
14.863204,-5.870582,0.627281,8.0,49.836605,24.031796,319.0,NaN,6.804,13.5,118.8,14 / 14,315527,2020-03-15 13:07:58:927
4.625598,-5.425261,0.21069,8.0,49.836605,24.031796,319.0,NaN,6.804,13.5,118.8,14 / 14,316027,2020-03-15 13:07:59:427
5.449203,-3.356671,0.067038,8.0,49.836605,24.031796,319.0,NaN,6.804,13.5,118.8,14 / 14,316527,2020-03-15 13:07:59:927
5.755661,-3.739743,-0.201113,8.0,49.836605,24.031796,319.0,NaN,6.804,13.5,118.8,14 / 14,317027,2020-03-15 13:08:00:427
11.051635,-2.973598,-0.004788,8.0,49.836605,24.031796,319.0,NaN,6.804,13.5,118.8,14 / 14,317527,2020-03-15 13:08:00:927
11.137826,-5.861006,-0.181959,8.0,49.836605,24.031796,319.0,NaN,6.804,13.5,118.8,14 / 14,318027,2020-03-15 13:08:01:427
9.380483,-9.576807,-0.952892,8.0,49.836605,24.031796,319.0,NaN,6.804,13.5,118.8,14 / 14,318527,2020-03-15 13:08:01:927
13.148955,-7.038953,-0.723049,8.0,49.836605,24.031796,319.0,NaN,6.804,13.5,118.8,14 / 14,319027,2020-03-15 13:08:02:427
6.732496,-9.040505,-1.723825,8.0,49.836605,24.031796,319.0,NaN,6.804,13.5,118.8,14 / 14,319527,2020-03-15 13:08:02:927
13.254301,-6.440402,-0.220267,8.0,49.836605,24.031796,319.0,NaN,6.804,13.5,118.8,14 / 14,320027,2020-03-15 13:08:03:427
4.118027,-5.449203,-0.258574,8.0,49.836605,24.031796,319.0,NaN,6.804,13.5,118.8,14 / 14,320527,2020-03-15 13:08:03:927
4.635175,-3.011906,-0.727837,8.0,49.836605,24.031796,319.0,NaN,6.804,13.5,118.8,14 / 14,321027,2020-03-15 13:08:04:427
5.837064,-4.113238,-0.392649,8.0,49.836605,24.031796,319.0,NaN,6.804,13.5,118.8,14 / 14,321527,2020-03-15 13:08:04:927
11.401189,-4.213795,-3.394978,8.0,49.836605,24.031796,319.0,NaN,6.804,13.5,118.8,14 / 14,322027,2020-03-15 13:08:05:427
11.693281,-5.501875,-1.288081,8.0,49.836605,24.031796,319.0,NaN,6.804,13.5,118.8,14 / 14,322527,2020-03-15 13:08:05:927
6.382942,-9.835381,0.775721,8.0,49.836605,24.031796,319.0,NaN,6.804,13.5,118.8,14 / 14,323027,2020-03-15 13:08:06:427
13.910312,-6.411672,1.015142,8.0,49.836605,24.031796,319.0,NaN,6.804,13.5,118.8,14 / 14,323527,2020-03-15 13:08:06:927
6.378154,-10.184934,-0.368707,8.0,49.836605,24.031796,319.0,NaN,6.804,13.5,118.8,14 / 14,324028,2020-03-15 13:08:07:428
13.967772,-6.105214,-0.445322,8.0,49.836605,24.031796,319.0,NaN,6.804,13.5,118.8,14 / 14,324528,2020-03-15 13:08:07:928
4.027047,-5.152322,-0.181959,8.0,49.836605,24.031796,319.0,NaN,6.804,13.5,118.8,14 / 14,325028,2020-03-15 13:08:08:428
4.328717,-2.341529,-1.096544,8.0,49.836605,24.031796,319.0,NaN,6.804,13.5,118.8,14 / 14,325527,2020-03-15 13:08:08:927
8.341399,-3.964798,-0.80924,8.0,49.836605,24.031796,319.0,NaN,6.804,13.5,118.8,14 / 14,326027,2020-03-15 13:08:09:427
13.000515,-7.321469,-2.245761,8.0,49.836605,24.031796,319.0,NaN,6.804,13.5,118.8,14 / 14,326527,2020-03-15 13:08:09:927
12.401965,-5.00867,-1.120486,8.0,49.836605,24.031796,319.0,NaN,6.804,13.5,118.8,14 / 14,327027,2020-03-15 13:08:10:427
6.703765,-7.800309,-1.647211,8.0,49.836605,24.031796,319.0,NaN,6.804,13.5,118.8,14 / 14,327527,2020-03-15 13:08:10:927
16.189592,-4.860229,1.211466,8.0,49.836605,24.031796,319.0,NaN,6.804,13.5,118.8,14 / 14,328027,2020-03-15 13:08:11:427
8.269573,-6.655881,-2.336741,8.0,49.836605,24.031796,319.0,NaN,6.804,13.5,118.8,14 / 14,328527,2020-03-15 13:08:11:927
16.01721,-5.377377,1.254562,8.0,49.836605,24.031796,319.0,NaN,6.804,13.5,118.8,14 / 14,329028,2020-03-15 13:08:12:428
4.237737,-5.300762,-0.536301,8.0,49.836605,24.031796,319.0,NaN,6.804,13.5,118.8,14 / 14,329528,2020-03-15 13:08:12:928
3.993528,-2.825158,-1.288081,8.0,49.836605,24.031796,319.0,NaN,6.804,13.5,118.8,14 / 14,330028,2020-03-15 13:08:13:428
5.985504,-3.845088,-0.464475,8.0,49.836605,24.031796,319.0,NaN,6.804,13.5,118.8,0 / 0,330528,2020-03-15 13:08:13:928
12.799402,-4.491522,-4.711789,8.0,49.836605,24.031796,319.0,NaN,6.804,13.5,118.8,0 / 2,331027,2020-03-15 13:08:14:427
12.555194,-6.641515,-1.359906,8.0,49.836605,24.031796,319.0,NaN,6.804,13.5,118.8,0 / 2,331527,2020-03-15 13:08:14:927
7.455544,-9.404425,0.158017,8.0,49.836605,24.031796,319.0,NaN,6.804,13.5,118.8,0 / 5,332027,2020-03-15 13:08:15:427
11.985373,-6.722918,-1.063026,8.0,49.836605,24.031796,319.0,NaN,6.804,13.5,118.8,0 / 5,332528,2020-03-15 13:08:15:928
6.971915,-8.863335,-0.814029,8.0,49.836605,24.031796,319.0,NaN,6.804,13.5,118.8,14 / 14,333028,2020-03-15 13:08:16:428
15.059528,-6.287173,1.120486,8.0,49.836605,24.031796,319.0,NaN,6.804,13.5,118.8,14 / 14,333527,2020-03-15 13:08:16:927
4.735731,-5.659893,0.019154,8.0,49.836605,24.031796,319.0,NaN,6.804,13.5,118.8,17 / 18,334028,2020-03-15 13:08:17:428
4.759673,-3.064578,-0.632069,8.0,49.834827,24.03268,312.0,NaN,6.372,11.0,191.6,17 / 18,334527,2020-03-15 13:08:17:927
7.297527,-3.174711,-1.551443,8.0,49.834827,24.03268,312.0,NaN,6.372,11.0,191.6,17 / 18,335027,2020-03-15 13:08:18:427
13.374011,-3.29921,-1.675941,8.0,49.834827,24.03268,312.0,NaN,6.372,11.0,191.6,17 / 18,335527,2020-03-15 13:08:18:927
11.640609,-6.928819,-2.006341,8.0,49.834827,24.03268,312.0,NaN,6.372,11.0,191.6,17 / 18,336027,2020-03-15 13:08:19:427
7.192182,-7.331045,-1.23062,8.0,49.834827,24.03268,312.0,NaN,6.372,11.0,191.6,17 / 18,336527,2020-03-15 13:08:19:927
16.754623,-4.812345,0.038307,8.0,49.834827,24.03268,312.0,NaN,6.372,11.0,191.6,17 / 18,337027,2020-03-15 13:08:20:427
5.00867,-5.449203,0.253785,8.0,49.834827,24.03268,312.0,NaN,6.372,11.0,191.6,17 / 18,337527,2020-03-15 13:08:20:927
15.978902,-4.975151,-0.138864,8.0,49.834827,24.03268,312.0,NaN,6.372,11.0,191.6,17 / 18,338027,2020-03-15 13:08:21:427
5.233725,-6.914454,-0.47884,8.0,49.834827,24.03268,312.0,NaN,6.372,11.0,191.6,17 / 18,338527,2020-03-15 13:08:21:927
5.21936,-2.815581,-0.038307,8.0,49.834827,24.03268,312.0,NaN,6.372,11.0,191.6,17 / 18,339027,2020-03-15 13:08:22:427
6.6894,-4.472368,-0.052672,8.0,49.834827,24.03268,312.0,NaN,6.372,11.0,191.6,17 / 18,339527,2020-03-15 13:08:22:927
13.110648,-4.635174,-3.284845,8.0,49.834827,24.03268,312.0,NaN,6.372,11.0,191.6,17 / 18,340027,2020-03-15 13:08:23:427
10.955867,-5.755661,0.062249,8.0,49.834827,24.03268,312.0,NaN,6.372,11.0,191.6,17 / 18,340527,2020-03-15 13:08:23:927
7.613562,-10.601525,-0.344765,8.0,49.834827,24.03268,312.0,NaN,6.372,11.0,191.6,17 / 18,341027,2020-03-15 13:08:24:427
11.947066,-6.995857,0.373495,8.0,49.834827,24.03268,312.0,NaN,6.372,11.0,191.6,17 / 18,341527,2020-03-15 13:08:24:927
3.265691,-4.783615,0.225055,8.0,49.834827,24.03268,312.0,NaN,6.372,11.0,191.6,17 / 18,342027,2020-03-15 13:08:25:427
14.872781,-7.838616,1.23062,8.0,49.834827,24.03268,312.0,NaN,6.372,11.0,191.6,17 / 18,342527,2020-03-15 13:08:25:927
4.453215,-5.746084,0.287304,8.0,49.834827,24.03268,312.0,NaN,6.372,11.0,191.6,17 / 18,343027,2020-03-15 13:08:26:427
4.022259,-2.873042,-0.694318,8.0,49.834827,24.03268,312.0,NaN,6.372,11.0,191.6,17 / 18,343527,2020-03-15 13:08:26:927
5.741296,-4.611232,-0.129287,8.0,49.834827,24.03268,312.0,NaN,6.372,11.0,191.6,17 / 18,344027,2020-03-15 13:08:27:427
13.024457,-4.716577,-4.970362,8.0,49.834827,24.03268,312.0,NaN,6.372,11.0,191.6,17 / 18,344527,2020-03-15 13:08:27:927
13.321339,-7.163451,-2.030283,8.0,49.834827,24.03268,312.0,NaN,6.372,11.0,191.6,17 / 18,345027,2020-03-15 13:08:28:427
6.823475,-10.180145,-0.086191,8.0,49.834827,24.03268,312.0,NaN,6.372,11.0,191.6,17 / 18,345528,2020-03-15 13:08:28:928
14.72434,-7.029376,0.957681,8.0,49.834827,24.03268,312.0,NaN,6.372,11.0,191.6,17 / 18,346027,2020-03-15 13:08:29:427
4.232949,-5.707777,-0.071826,8.0,49.834827,24.03268,312.0,NaN,6.372,11.0,191.6,17 / 18,346528,2020-03-15 13:08:29:928
14.101848,-7.891289,0.914585,8.0,49.834827,24.03268,312.0,NaN,6.372,11.0,191.6,17 / 18,347027,2020-03-15 13:08:30:427
3.873819,-4.922478,0.354342,8.0,49.834827,24.03268,312.0,NaN,6.372,11.0,191.6,17 / 18,347527,2020-03-15 13:08:30:927
4.496311,-1.977611,-1.359906,8.0,49.834827,24.03268,312.0,NaN,6.372,11.0,191.6,17 / 18,348027,2020-03-15 13:08:31:427
8.37013,-5.870582,0.411803,8.0,49.834827,24.03268,312.0,NaN,6.372,11.0,191.6,17 / 18,348527,2020-03-15 13:08:31:927
13.536817,-6.560112,-3.222595,8.0,49.834827,24.03268,312.0,NaN,6.372,11.0,191.6,17 / 18,349027,2020-03-15 13:08:32:427
12.263102,-5.133168,-1.40779,8.0,49.834827,24.03268,312.0,NaN,6.372,11.0,191.6,17 / 18,349527,2020-03-15 13:08:32:927
6.339846,-6.703765,-1.561019,8.0,49.834827,24.03268,312.0,NaN,6.372,11.0,191.6,17 / 18,350027,2020-03-15 13:08:33:427
11.75553,-4.611232,-0.454898,8.0,49.834827,24.03268,312.0,NaN,6.372,11.0,191.6,17 / 18,350527,2020-03-15 13:08:33:927
5.406108,-4.620809,-0.277727,8.0,49.834827,24.03268,312.0,NaN,6.372,11.0,191.6,17 / 18,351028,2020-03-15 13:08:34:428
6.531382,-1.867477,-0.344765,8.0,49.834827,24.03268,312.0,NaN,6.372,11.0,191.6,17 / 18,351528,2020-03-15 13:08:34:928
4.247314,-5.15711,0.181959,8.0,49.834827,24.03268,312.0,NaN,6.372,11.0,191.6,17 / 18,352028,2020-03-15 13:08:35:428
10.002975,-1.651999,-0.129287,8.0,49.834827,24.03268,312.0,NaN,6.372,11.0,191.6,17 / 18,352528,2020-03-15 13:08:35:928
10.026917,-8.03494,-1.690306,8.0,49.834827,24.03268,312.0,NaN,6.372,11.0,191.6,17 / 18,353027,2020-03-15 13:08:36:427
10.70687,-8.719683,0.694319,8.0,49.834827,24.03268,312.0,NaN,6.372,11.0,191.6,17 / 18,353527,2020-03-15 13:08:36:927
13.077129,-7.484274,-0.881066,8.0,49.834827,24.03268,312.0,NaN,6.372,11.0,191.6,17 / 18,354028,2020-03-15 13:08:37:428
5.468357,-7.331045,2.365471,8.0,49.834827,24.03268,312.0,NaN,6.372,11.0,191.6,17 / 18,354528,2020-03-15 13:08:37:928
9.528923,-3.533841,-0.574608,8.0,49.834827,24.03268,312.0,NaN,6.372,11.0,191.6,17 / 18,355028,2020-03-15 13:08:38:428
5.061342,-4.807557,0.320823,8.0,49.834827,24.03268,312.0,NaN,6.372,11.0,191.6,17 / 18,355527,2020-03-15 13:08:38:927
6.411672,-1.61848,-2.930503,8.0,49.834827,24.03268,312.0,NaN,6.372,11.0,191.6,17 / 18,356027,2020-03-15 13:08:39:427
7.091625,-6.670246,0.052672,8.0,49.834827,24.03268,312.0,NaN,6.372,11.0,191.6,17 / 18,356527,2020-03-15 13:08:39:927
11.36767,-6.004657,-0.014365,8.0,49.834827,24.03268,312.0,NaN,6.372,11.0,191.6,17 / 18,357027,2020-03-15 13:08:40:427
8.121132,-7.771579,-0.301669,8.0,49.834827,24.03268,312.0,NaN,6.372,11.0,191.6,17 / 18,357527,2020-03-15 13:08:40:927
11.032481,-5.056554,-0.679953,8.0,49.834827,24.03268,312.0,NaN,6.372,11.0,191.6,17 / 18,358027,2020-03-15 13:08:41:427
13.330915,-7.661445,-2.676717,8.0,49.834827,24.03268,312.0,NaN,6.372,11.0,191.6,17 / 18,358527,2020-03-15 13:08:41:927
4.812346,-6.320692,0.167594,8.0,49.834827,24.03268,312.0,NaN,6.372,11.0,191.6,17 / 18,359027,2020-03-15 13:08:42:427
5.750873,-3.371036,-0.325611,8.0,49.834827,24.03268,312.0,NaN,6.372,11.0,191.6,17 / 18,359527,2020-03-15 13:08:42:927
5.396531,-3.873818,0.196325,8.0,49.834827,24.03268,312.0,NaN,6.372,11.0,191.6,17 / 18,360027,2020-03-15 13:08:43:427
11.96622,-2.240973,-4.539406,8.0,49.834827,24.03268,312.0,NaN,6.372,11.0,191.6,17 / 18,360527,2020-03-15 13:08:43:927
9.725247,-9.725247,-0.067038,8.0,49.834827,24.03268,312.0,NaN,6.372,11.0,191.6,17 / 18,361027,2020-03-15 13:08:44:427
9.878476,-4.113238,-2.949656,8.0,49.834827,24.03268,312.0,NaN,6.372,11.0,191.6,17 / 18,361527,2020-03-15 13:08:44:927
18.219875,-6.445191,-1.675941,8.0,49.834827,24.03268,312.0,NaN,6.372,11.0,191.6,17 / 18,362027,2020-03-15 13:08:45:427
11.305421,-7.024587,1.661576,8.0,49.834827,24.03268,312.0,NaN,6.372,11.0,191.6,17 / 18,362527,2020-03-15 13:08:45:927
14.66688,-6.780379,-1.015141,8.0,49.834827,24.03268,312.0,NaN,6.372,11.0,191.6,17 / 18,363027,2020-03-15 13:08:46:427
2.044648,-5.985504,-1.211466,8.0,49.834827,24.03268,312.0,NaN,6.372,11.0,191.6,17 / 18,363527,2020-03-15 13:08:46:927
4.984728,-2.341529,-0.770933,8.0,49.834827,24.03268,312.0,NaN,6.372,11.0,191.6,17 / 18,364027,2020-03-15 13:08:47:427
6.21056,-4.654328,0.373495,8.0,49.834827,24.03268,312.0,NaN,6.372,11.0,191.6,17 / 18,364528,2020-03-15 13:08:47:928
12.885593,-7.819463,-3.399766,8.0,49.834827,24.03268,312.0,NaN,6.372,11.0,191.6,17 / 18,365027,2020-03-15 13:08:48:427
9.753978,-9.069236,0.272939,8.0,49.834827,24.03268,312.0,NaN,6.372,11.0,191.6,17 / 18,365527,2020-03-15 13:08:48:927
14.705187,-10.055647,-3.040636,8.0,49.834827,24.03268,312.0,NaN,6.372,11.0,191.6,17 / 18,366027,2020-03-15 13:08:49:427
10.931925,-9.979033,0.430956,8.0,49.834827,24.03268,312.0,NaN,6.372,11.0,191.6,17 / 18,366527,2020-03-15 13:08:49:927
6.335058,-10.151415,2.346318,8.0,49.834827,24.03268,312.0,NaN,6.372,11.0,191.6,17 / 18,367027,2020-03-15 13:08:50:427
13.254301,-6.813898,1.968034,8.0,49.834827,24.03268,312.0,NaN,6.372,11.0,191.6,17 / 18,367528,2020-03-15 13:08:50:928
3.892972,-5.549759,-0.033519,8.0,49.834827,24.03268,312.0,NaN,6.372,11.0,191.6,17 / 18,368028,2020-03-15 13:08:51:428
6.023812,-1.8579,-3.107674,8.0,49.834827,24.03268,312.0,NaN,6.372,11.0,191.6,17 / 18,368528,2020-03-15 13:08:51:928
8.523358,-8.355764,1.474828,8.0,49.834827,24.03268,312.0,NaN,6.372,11.0,191.6,17 / 18,369027,2020-03-15 13:08:52:427
12.200851,-6.904877,0.23942,8.0,49.834827,24.03268,312.0,NaN,6.372,11.0,191.6,17 / 18,369527,2020-03-15 13:08:52:927
10.85531,-9.351752,-0.407014,8.0,49.834827,24.03268,312.0,NaN,6.372,11.0,191.6,17 / 18,370028,2020-03-15 13:08:53:428
8.935161,-7.010222,0.852336,8.0,49.834827,24.03268,312.0,NaN,6.372,11.0,191.6,17 / 18,370528,2020-03-15 13:08:53:928
14.101848,-8.365341,-1.321599,8.0,49.834827,24.03268,312.0,NaN,6.372,11.0,191.6,17 / 18,371028,2020-03-15 13:08:54:428
4.989517,-6.947973,0.086191,8.0,49.834827,24.03268,312.0,NaN,6.372,11.0,191.6,17 / 18,371528,2020-03-15 13:08:54:928
7.192182,-3.964798,-0.59855,8.0,49.834827,24.03268,312.0,NaN,6.372,11.0,191.6,17 / 18,372028,2020-03-15 13:08:55:428
5.861006,-3.284845,-3.543418,8.0,49.834827,24.03268,312.0,NaN,6.372,11.0,191.6,17 / 18,372528,2020-03-15 13:08:55:928
10.247183,-2.408567,-0.651223,8.0,49.834827,24.03268,312.0,NaN,6.372,11.0,191.6,17 / 18,373028,2020-03-15 13:08:56:428
9.490616,-9.107543,1.312023,8.0,49.834827,24.03268,312.0,NaN,6.372,11.0,191.6,17 / 18,373528,2020-03-15 13:08:56:928
12.564771,-8.935161,-4.434061,8.0,49.834827,24.03268,312.0,NaN,6.372,11.0,191.6,17 / 18,374028,2020-03-15 13:08:57:428
11.372458,-7.517793,-1.958457,8.0,49.834827,24.03268,312.0,NaN,6.372,11.0,191.6,17 / 18,374528,2020-03-15 13:08:57:928
11.927913,-6.904877,-1.61848,8.0,49.834827,24.03268,312.0,NaN,6.372,11.0,191.6,17 / 18,375028,2020-03-15 13:08:58:428
9.715671,-8.681376,-1.307234,8.0,49.834827,24.03268,312.0,NaN,6.372,11.0,191.6,17 / 18,375528,2020-03-15 13:08:58:928
6.603208,-10.34774,1.101333,8.0,49.834827,24.03268,312.0,NaN,6.372,11.0,191.6,17 / 18,376027,2020-03-15 13:08:59:427
13.680469,-7.082048,1.905785,8.0,49.834827,24.03268,312.0,NaN,6.372,11.0,191.6,17 / 18,376527,2020-03-15 13:08:59:927
4.788404,-6.009446,0.23942,8.0,49.834827,24.03268,312.0,NaN,6.372,11.0,191.6,17 / 18,377027,2020-03-15 13:09:00:427
4.141969,-2.973598,-1.034295,8.0,49.834827,24.03268,312.0,NaN,6.372,11.0,191.6,17 / 18,377527,2020-03-15 13:09:00:927
4.726155,-5.118803,0.531513,8.0,49.834827,24.03268,312.0,NaN,6.372,11.0,191.6,17 / 18,378027,2020-03-15 13:09:01:427
9.730036,-1.359906,-3.983951,8.0,49.834827,24.03268,312.0,NaN,6.372,11.0,191.6,17 / 18,378527,2020-03-15 13:09:01:927
9.279925,-8.437167,0.282516,8.0,49.834827,24.03268,312.0,NaN,6.372,11.0,191.6,17 / 18,379027,2020-03-15 13:09:02:427
12.263102,-5.176264,-0.402226,8.0,49.834827,24.03268,312.0,NaN,6.372,11.0,191.6,17 / 18,379527,2020-03-15 13:09:02:927
14.638149,-9.500193,-0.191536,8.0,49.834827,24.03268,312.0,NaN,6.372,11.0,191.6,17 / 18,380027,2020-03-15 13:09:03:427
6.588843,-6.766014,1.584962,8.0,49.834827,24.03268,312.0,NaN,6.372,11.0,191.6,17 / 18,380527,2020-03-15 13:09:03:927
12.028469,-7.297527,-1.613692,8.0,49.834827,24.03268,312.0,NaN,6.372,11.0,191.6,17 / 18,381027,2020-03-15 13:09:04:427
6.540959,-9.715671,1.292869,8.0,49.834827,24.03268,312.0,NaN,6.372,11.0,191.6,17 / 18,381527,2020-03-15 13:09:04:927
14.700398,-5.765238,0.545878,8.0,49.834827,24.03268,312.0,NaN,6.372,11.0,191.6,17 / 18,382027,2020-03-15 13:09:05:427
3.533842,-5.224148,0.110133,8.0,49.834827,24.03268,312.0,NaN,6.372,11.0,191.6,0 / 0,382527,2020-03-15 13:09:05:927
4.271256,-2.624045,-1.412579,8.0,49.834827,24.03268,312.0,NaN,6.372,11.0,191.6,0 / 1,383028,2020-03-15 13:09:06:428
5.157111,-4.58729,0.411803,8.0,49.834827,24.03268,312.0,NaN,6.372,11.0,191.6,0 / 1,383528,2020-03-15 13:09:06:928
11.836933,-3.859453,-2.829946,8.0,49.834827,24.03268,312.0,NaN,6.372,11.0,191.6,0 / 5,384028,2020-03-15 13:09:07:428
11.750742,-8.063671,-1.814805,8.0,49.834827,24.03268,312.0,NaN,6.372,11.0,191.6,10 / 10,384527,2020-03-15 13:09:07:927
8.432379,-10.524911,0.383072,8.0,49.834827,24.03268,312.0,NaN,6.372,11.0,191.6,10 / 10,385028,2020-03-15 13:09:08:428
15.62456,-6.349423,-0.919373,8.0,49.834827,24.03268,312.0,NaN,6.372,11.0,191.6,17 / 17,385528,2020-03-15 13:09:08:928
8.705317,-9.634268,1.489194,8.0,49.834827,24.03268,312.0,NaN,6.372,11.0,191.6,17 / 17,386028,2020-03-15 13:09:09:428
15.112201,-6.497863,-2.035071,8.0,49.834244,24.033197,327.0,NaN,4.536,14.5,112.9,18 / 18,386528,2020-03-15 13:09:09:928
4.386178,-7.987056,1.182736,8.0,49.834244,24.033197,327.0,NaN,4.536,14.5,112.9,18 / 18,387028,2020-03-15 13:09:10:428
6.770803,-4.692635,0.201113,8.0,49.834244,24.033197,327.0,NaN,4.536,14.5,112.9,18 / 18,387528,2020-03-15 13:09:10:928
5.530606,-5.372588,0.54109,8.0,49.834244,24.033197,327.0,NaN,4.536,14.5,112.9,18 / 18,388027,2020-03-15 13:09:11:427
8.60955,-2.916138,-0.105345,8.0,49.834244,24.033197,327.0,NaN,4.536,14.5,112.9,18 / 18,388527,2020-03-15 13:09:11:927
9.131485,-9.773131,0.933739,8.0,49.834244,24.033197,327.0,NaN,4.536,14.5,112.9,18 / 18,389027,2020-03-15 13:09:12:427
11.798626,-7.757213,-0.177171,8.0,49.834244,24.033197,327.0,NaN,4.536,14.5,112.9,18 / 18,389527,2020-03-15 13:09:12:927
12.617443,-7.216124,-1.819593,8.0,49.834244,24.033197,327.0,NaN,4.536,14.5,112.9,18 / 18,390028,2020-03-15 13:09:13:428
5.43005,-9.126697,-0.158017,8.0,49.834244,24.033197,327.0,NaN,4.536,14.5,112.9,18 / 18,390528,2020-03-15 13:09:13:928
15.921441,-5.6982,1.302446,8.0,49.834244,24.033197,327.0,NaN,4.536,14.5,112.9,18 / 18,391028,2020-03-15 13:09:14:428
7.043741,-10.25676,0.229843,8.0,49.834244,24.033197,327.0,NaN,4.536,14.5,112.9,18 / 18,391528,2020-03-15 13:09:14:928
16.40507,-6.191406,-0.536301,8.0,49.834244,24.033197,327.0,NaN,4.536,14.5,112.9,18 / 18,392028,2020-03-15 13:09:15:428
5.051766,-7.795521,0.995988,8.0,49.834244,24.033197,327.0,NaN,4.536,14.5,112.9,18 / 18,392528,2020-03-15 13:09:15:928
6.933608,-5.109226,-0.799663,8.0,49.834244,24.033197,327.0,NaN,4.536,14.5,112.9,18 / 18,393028,2020-03-15 13:09:16:428
4.893749,-4.405331,0.325611,8.0,49.834244,24.033197,327.0,NaN,4.536,14.5,112.9,18 / 18,393528,2020-03-15 13:09:16:928
7.240066,-2.734178,-2.54743,8.0,49.834244,24.033197,327.0,NaN,4.536,14.5,112.9,18 / 18,394028,2020-03-15 13:09:17:428
9.251195,-7.19697,0.454898,8.0,49.834244,24.033197,327.0,NaN,4.536,14.5,112.9,18 / 18,394527,2020-03-15 13:09:17:927
11.731588,-6.105214,-1.527501,8.0,49.834244,24.033197,327.0,NaN,4.536,14.5,112.9,18 / 18,395027,2020-03-15 13:09:18:427
12.061988,-3.600879,-2.173935,8.0,49.834244,24.033197,327.0,NaN,4.536,14.5,112.9,18 / 18,395527,2020-03-15 13:09:18:927
11.827356,-10.496181,0.521936,8.0,49.834244,24.033197,327.0,NaN,4.536,14.5,112.9,18 / 18,396027,2020-03-15 13:09:19:427
13.072341,-6.766014,-2.293645,8.0,49.834244,24.033197,327.0,NaN,4.536,14.5,112.9,18 / 18,396527,2020-03-15 13:09:19:927
6.698977,-5.27682,-1.225831,8.0,49.834244,24.033197,327.0,NaN,4.536,14.5,112.9,18 / 18,397027,2020-03-15 13:09:20:427
5.023035,-3.007117,-3.045424,8.0,49.834244,24.033197,327.0,NaN,4.536,14.5,112.9,18 / 18,397527,2020-03-15 13:09:20:927
7.010223,-3.912125,0.033519,8.0,49.834244,24.033197,327.0,NaN,4.536,14.5,112.9,18 / 18,398027,2020-03-15 13:09:21:427
11.133038,-6.502651,-3.112462,8.0,49.834244,24.033197,327.0,NaN,4.536,14.5,112.9,18 / 18,398527,2020-03-15 13:09:21:927
10.122684,-6.445191,0.531513,8.0,49.834244,24.033197,327.0,NaN,4.536,14.5,112.9,18 / 18,399027,2020-03-15 13:09:22:427
7.632715,-9.691729,0.474052,8.0,49.834244,24.033197,327.0,NaN,4.536,14.5,112.9,18 / 18,399527,2020-03-15 13:09:22:927
14.025233,-6.153098,0.277727,8.0,49.834244,24.033197,327.0,NaN,4.536,14.5,112.9,18 / 18,400028,2020-03-15 13:09:23:428
4.371813,-5.999869,-0.105345,8.0,49.834244,24.033197,327.0,NaN,4.536,14.5,112.9,18 / 18,400528,2020-03-15 13:09:23:928
17.18558,-5.899313,0.349553,8.0,49.834244,24.033197,327.0,NaN,4.536,14.5,112.9,18 / 18,401027,2020-03-15 13:09:24:427
2.753332,-6.651092,0.407014,8.0,49.834244,24.033197,327.0,NaN,4.536,14.5,112.9,18 / 18,401527,2020-03-15 13:09:24:927
3.265691,-4.165911,-0.153229,8.0,49.834244,24.033197,327.0,NaN,4.536,14.5,112.9,18 / 18,402028,2020-03-15 13:09:25:428
5.176265,-4.515464,0.9912,8.0,49.834244,24.033197,327.0,NaN,4.536,14.5,112.9,18 / 18,402528,2020-03-15 13:09:25:928
9.394848,-1.460463,-2.173935,8.0,49.834244,24.033197,327.0,NaN,4.536,14.5,112.9,18 / 18,403027,2020-03-15 13:09:26:427
7.642292,-9.097966,1.024718,8.0,49.834244,24.033197,327.0,NaN,4.536,14.5,112.9,18 / 18,403527,2020-03-15 13:09:26:927
10.759542,-7.273585,1.283292,8.0,49.834244,24.033197,327.0,NaN,4.536,14.5,112.9,18 / 18,404027,2020-03-15 13:09:27:427
12.703634,-10.395624,-1.029507,8.0,49.834244,24.033197,327.0,NaN,4.536,14.5,112.9,18 / 18,404527,2020-03-15 13:09:27:927
4.778827,-7.225701,1.910573,8.0,49.834244,24.033197,327.0,NaN,4.536,14.5,112.9,18 / 18,405027,2020-03-15 13:09:28:427
8.403648,-4.582502,-0.622492,8.0,49.834244,24.033197,327.0,NaN,4.536,14.5,112.9,18 / 18,405527,2020-03-15 13:09:28:927
4.118027,-4.577713,-0.402226,8.0,49.834244,24.033197,327.0,NaN,4.536,14.5,112.9,18 / 18,406028,2020-03-15 13:09:29:428
9.461885,-6.689399,-0.646434,8.0,49.834244,24.033197,327.0,NaN,4.536,14.5,112.9,18 / 18,406528,2020-03-15 13:09:29:928
5.93762,-5.78918,0.023942,8.0,49.834244,24.033197,327.0,NaN,4.536,14.5,112.9,18 / 18,407028,2020-03-15 13:09:30:428
4.975151,-1.991976,-2.360683,8.0,49.834244,24.033197,327.0,NaN,4.536,14.5,112.9,18 / 18,407528,2020-03-15 13:09:30:928
5.894525,-5.784391,0.497994,8.0,49.834244,24.033197,327.0,NaN,4.536,14.5,112.9,18 / 18,408027,2020-03-15 13:09:31:427
12.98615,-9.572019,-4.328717,8.0,49.834244,24.033197,327.0,NaN,4.536,14.5,112.9,18 / 18,408528,2020-03-15 13:09:31:928
9.744401,-8.307879,-1.699883,8.0,49.834244,24.033197,327.0,NaN,4.536,14.5,112.9,18 / 18,409028,2020-03-15 13:09:32:428
7.953538,-10.13705,0.354342,8.0,49.834244,24.033197,327.0,NaN,4.536,14.5,112.9,18 / 18,409528,2020-03-15 13:09:32:928
11.760319,-7.359776,0.095768,8.0,49.834244,24.033197,327.0,NaN,4.536,14.5,112.9,18 / 18,410028,2020-03-15 13:09:33:428
4.127604,-5.0374,-0.172383,8.0,49.834244,24.033197,327.0,NaN,4.536,14.5,112.9,18 / 18,410528,2020-03-15 13:09:33:928
12.847286,-7.254431,-0.019154,8.0,49.834244,24.033197,327.0,NaN,4.536,14.5,112.9,18 / 18,411028,2020-03-15 13:09:34:428
3.313575,-5.573701,0.086191,8.0,49.834244,24.033197,327.0,NaN,4.536,14.5,112.9,18 / 18,411528,2020-03-15 13:09:34:928
3.500323,-2.557007,-2.226607,8.0,49.834244,24.033197,327.0,NaN,4.536,14.5,112.9,18 / 18,412028,2020-03-15 13:09:35:428
6.71813,-4.716577,0.3304,8.0,49.834244,24.033197,327.0,NaN,4.536,14.5,112.9,18 / 18,412528,2020-03-15 13:09:35:928
9.983821,-5.803545,-2.671929,8.0,49.834244,24.033197,327.0,NaN,4.536,14.5,112.9,18 / 18,413027,2020-03-15 13:09:36:427
9.246407,-8.465898,-0.632069,8.0,49.834244,24.033197,327.0,NaN,4.536,14.5,112.9,18 / 18,413527,2020-03-15 13:09:36:927
7.029376,-10.754754,0.454898,8.0,49.834244,24.033197,327.0,NaN,4.536,14.5,112.9,18 / 18,414027,2020-03-15 13:09:37:427
14.221559,-7.97748,-0.847547,8.0,49.834244,24.033197,327.0,NaN,4.536,14.5,112.9,18 / 18,414527,2020-03-15 13:09:37:927
5.181053,-8.092401,0.248997,8.0,49.834244,24.033197,327.0,NaN,4.536,14.5,112.9,18 / 18,415027,2020-03-15 13:09:38:427
14.480132,-8.250418,-0.737414,8.0,49.834244,24.033197,327.0,NaN,4.536,14.5,112.9,18 / 18,415527,2020-03-15 13:09:38:927
5.21936,-9.136273,1.671153,8.0,49.834244,24.033197,327.0,NaN,4.536,14.5,112.9,18 / 18,416027,2020-03-15 13:09:39:427
9.476251,-6.071695,-0.067038,8.0,49.834244,24.033197,327.0,NaN,4.536,14.5,112.9,18 / 18,416527,2020-03-15 13:09:39:927
4.582502,-5.554548,-0.023942,8.0,49.834244,24.033197,327.0,NaN,4.536,14.5,112.9,18 / 18,417027,2020-03-15 13:09:40:427
5.884948,-1.848324,-1.541866,8.0,49.834244,24.033197,327.0,NaN,4.536,14.5,112.9,18 / 18,417527,2020-03-15 13:09:40:927
7.038953,-6.603208,0.47884,8.0,49.834244,24.033197,327.0,NaN,4.536,14.5,112.9,18 / 18,418028,2020-03-15 13:09:41:428
13.22557,-8.537724,-2.557007,8.0,49.834244,24.033197,327.0,NaN,4.536,14.5,112.9,18 / 18,418527,2020-03-15 13:09:41:927
9.155427,-9.92636,-1.335964,8.0,49.834244,24.033197,327.0,NaN,4.536,14.5,112.9,18 / 18,419028,2020-03-15 13:09:42:428
8.030153,-9.902418,1.47004,8.0,49.834244,24.033197,327.0,NaN,4.536,14.5,112.9,18 / 18,419528,2020-03-15 13:09:42:928
12.564771,-7.038953,0.646435,8.0,49.834244,24.033197,327.0,NaN,4.536,14.5,112.9,18 / 18,420028,2020-03-15 13:09:43:428
3.193865,-5.51624,0.627281,8.0,49.834244,24.033197,327.0,NaN,4.536,14.5,112.9,18 / 18,420528,2020-03-15 13:09:43:928
12.919112,-6.555324,0.086191,8.0,49.834244,24.033197,327.0,NaN,4.536,14.5,112.9,18 / 18,421028,2020-03-15 13:09:44:428
3.198654,-5.425261,-0.335188,8.0,49.834244,24.033197,327.0,NaN,4.536,14.5,112.9,18 / 18,421528,2020-03-15 13:09:44:928
3.744532,-2.451662,-2.092532,8.0,49.834244,24.033197,327.0,NaN,4.536,14.5,112.9,18 / 18,422028,2020-03-15 13:09:45:428
7.532159,-5.439626,0.383072,8.0,49.834244,24.033197,327.0,NaN,4.536,14.5,112.9,18 / 18,422528,2020-03-15 13:09:45:928
12.344504,-10.58716,-2.087744,8.0,49.834244,24.033197,327.0,NaN,4.536,14.5,112.9,18 / 18,423028,2020-03-15 13:09:46:428
12.86644,-7.450755,-1.364695,8.0,49.834244,24.033197,327.0,NaN,4.536,14.5,112.9,18 / 18,423527,2020-03-15 13:09:46:927
3.77805,-11.860875,5.497087,8.0,49.834244,24.033197,327.0,NaN,4.536,14.5,112.9,18 / 18,424027,2020-03-15 13:09:47:427
13.627796,-4.505887,-1.695095,8.0,49.834244,24.033197,327.0,NaN,4.536,14.5,112.9,18 / 18,424527,2020-03-15 13:09:47:927
4.903325,-4.620809,0.579397,8.0,49.834244,24.033197,327.0,NaN,4.536,14.5,112.9,18 / 18,425027,2020-03-15 13:09:48:427
9.461885,-1.029507,-3.184288,8.0,49.834244,24.033197,327.0,NaN,4.536,14.5,112.9,18 / 18,425527,2020-03-15 13:09:48:927
7.513005,-6.335057,-0.531513,8.0,49.834244,24.033197,327.0,NaN,4.536,14.5,112.9,18 / 18,426028,2020-03-15 13:09:49:428
14.293385,-5.070919,-4.309563,8.0,49.834244,24.033197,327.0,NaN,4.536,14.5,112.9,18 / 18,426528,2020-03-15 13:09:49:928
14.968549,-6.076483,-2.54743,8.0,49.834244,24.033197,327.0,NaN,4.536,14.5,112.9,18 / 18,427028,2020-03-15 13:09:50:428
11.032481,-9.184157,-2.557007,8.0,49.834244,24.033197,327.0,NaN,4.536,14.5,112.9,18 / 18,427528,2020-03-15 13:09:50:928
13.982138,-9.141062,-3.65834,8.0,49.834244,24.033197,327.0,NaN,4.536,14.5,112.9,18 / 18,428028,2020-03-15 13:09:51:428
13.388376,-9.710882,-0.225055,8.0,49.834244,24.033197,327.0,NaN,4.536,14.5,112.9,18 / 18,428527,2020-03-15 13:09:51:927
21.20305,-4.879383,-3.361459,8.0,49.834244,24.033197,327.0,NaN,4.536,14.5,112.9,18 / 18,429028,2020-03-15 13:09:52:428
4.855441,-8.686164,-1.134852,8.0,49.834244,24.033197,327.0,NaN,4.536,14.5,112.9,18 / 18,429528,2020-03-15 13:09:52:928
14.432248,4.357447,-0.895431,8.0,49.834244,24.033197,327.0,NaN,4.536,14.5,112.9,18 / 18,430028,2020-03-15 13:09:53:428
3.696648,-7.120356,0.09098,8.0,49.834244,24.033197,327.0,NaN,4.536,14.5,112.9,18 / 18,430527,2020-03-15 13:09:53:927
12.526464,-4.807557,0.42138,8.0,49.834244,24.033197,327.0,NaN,4.536,14.5,112.9,18 / 18,431027,2020-03-15 13:09:54:427
4.836288,-6.770802,-0.866701,8.0,49.834244,24.033197,327.0,NaN,4.536,14.5,112.9,18 / 18,431527,2020-03-15 13:09:54:927
5.540183,-1.244985,-0.703895,8.0,49.834244,24.033197,327.0,NaN,4.536,14.5,112.9,18 / 18,432027,2020-03-15 13:09:55:427
6.306328,-7.331045,-0.924162,8.0,49.834244,24.033197,327.0,NaN,4.536,14.5,112.9,18 / 18,432528,2020-03-15 13:09:55:928
5.93762,-3.782838,-0.565032,8.0,49.834244,24.033197,327.0,NaN,4.536,14.5,112.9,18 / 18,433027,2020-03-15 13:09:56:427
4.209007,-3.184288,-1.067814,8.0,49.834244,24.033197,327.0,NaN,4.536,14.5,112.9,18 / 18,433527,2020-03-15 13:09:56:927
4.132392,-0.234632,-4.592078,8.0,49.834244,24.033197,327.0,NaN,4.536,14.5,112.9,18 / 18,434027,2020-03-15 13:09:57:427
7.374141,-4.884171,0.258574,8.0,49.834244,24.033197,327.0,NaN,4.536,14.5,112.9,18 / 18,434527,2020-03-15 13:09:57:927
11.683704,-4.869806,-2.624045,8.0,49.834244,24.033197,327.0,NaN,4.536,14.5,112.9,0 / 0,435027,2020-03-15 13:09:58:427
12.579136,-9.830592,-1.642422,8.0,49.834244,24.033197,327.0,NaN,4.536,14.5,112.9,4 / 4,435527,2020-03-15 13:09:58:927
13.800179,-7.240066,1.493982,8.0,49.834244,24.033197,327.0,NaN,4.536,14.5,112.9,4 / 4,436027,2020-03-15 13:09:59:427
9.773131,-7.474697,-0.263362,8.0,49.834244,24.033197,327.0,NaN,4.536,14.5,112.9,12 / 12,436527,2020-03-15 13:09:59:927
11.228806,-5.544971,-1.47004,8.0,49.834244,24.033197,327.0,NaN,4.536,14.5,112.9,12 / 12,437027,2020-03-15 13:10:00:427
15.74427,-6.995857,-2.245761,8.0,49.834244,24.033197,327.0,NaN,4.536,14.5,112.9,17 / 17,437527,2020-03-15 13:10:00:927
5.21936,-6.569689,1.848324,8.0,49.834244,24.033197,327.0,NaN,4.536,14.5,112.9,17 / 17,438027,2020-03-15 13:10:01:427
6.497864,-4.113238,-0.59855,8.0,49.83388,24.03393,330.0,NaN,4.68,10.5,187.7,19 / 19,438528,2020-03-15 13:10:01:928
6.033388,-4.395754,0.713472,8.0,49.83388,24.03393,330.0,NaN,4.68,10.5,187.7,19 / 19,439028,2020-03-15 13:10:02:428
11.650186,-4.180276,-2.628833,8.0,49.83388,24.03393,330.0,NaN,4.68,10.5,187.7,19 / 19,439528,2020-03-15 13:10:02:928
11.765107,-6.660669,-2.27928,8.0,49.83388,24.03393,330.0,NaN,4.68,10.5,187.7,19 / 19,440028,2020-03-15 13:10:03:428
10.582372,-5.90889,-6.004657,8.0,49.83388,24.03393,330.0,NaN,4.68,10.5,187.7,19 / 19,440528,2020-03-15 13:10:03:928
11.851298,-6.162675,-1.905785,8.0,49.83388,24.03393,330.0,NaN,4.68,10.5,187.7,19 / 19,441028,2020-03-15 13:10:04:428
6.143522,-8.207323,-0.023942,8.0,49.83388,24.03393,330.0,NaN,4.68,10.5,187.7,19 / 19,441528,2020-03-15 13:10:04:928
12.243947,-6.636727,-1.426944,8.0,49.83388,24.03393,330.0,NaN,4.68,10.5,187.7,19 / 19,442027,2020-03-15 13:10:05:427
4.189853,-4.362235,0.3304,8.0,49.83388,24.03393,330.0,NaN,4.68,10.5,187.7,19 / 19,442527,2020-03-15 13:10:05:927
6.464345,-2.202665,-1.728614,8.0,49.83388,24.03393,330.0,NaN,4.68,10.5,187.7,19 / 19,443027,2020-03-15 13:10:06:427
9.844957,-7.307103,-1.465251,8.0,49.83388,24.03393,330.0,NaN,4.68,10.5,187.7,19 / 19,443528,2020-03-15 13:10:06:928
10.802638,-6.995857,-1.173159,8.0,49.83388,24.03393,330.0,NaN,4.68,10.5,187.7,19 / 19,444028,2020-03-15 13:10:07:428
12.674904,-6.775591,-3.567361,8.0,49.83388,24.03393,330.0,NaN,4.68,10.5,187.7,19 / 19,444527,2020-03-15 13:10:07:927
6.967127,-7.048529,1.187524,8.0,49.83388,24.03393,330.0,NaN,4.68,10.5,187.7,19 / 19,445027,2020-03-15 13:10:08:427
12.076353,-6.220136,-2.470816,8.0,49.83388,24.03393,330.0,NaN,4.68,10.5,187.7,19 / 19,445527,2020-03-15 13:10:08:927
7.115568,-7.967903,0.823605,8.0,49.83388,24.03393,330.0,NaN,4.68,10.5,187.7,19 / 19,446027,2020-03-15 13:10:09:427
12.397177,-6.114791,-0.837971,8.0,49.83388,24.03393,330.0,NaN,4.68,10.5,187.7,19 / 19,446527,2020-03-15 13:10:09:927
4.577714,-5.018246,0.469264,8.0,49.83388,24.03393,330.0,NaN,4.68,10.5,187.7,19 / 19,447027,2020-03-15 13:10:10:427
4.884172,-2.020706,-2.566584,8.0,49.83388,24.03393,330.0,NaN,4.68,10.5,187.7,19 / 19,447527,2020-03-15 13:10:10:927
9.299079,-7.541735,-1.072602,8.0,49.83388,24.03393,330.0,NaN,4.68,10.5,187.7,19 / 19,448027,2020-03-15 13:10:11:427
12.047623,-7.671022,0.076614,8.0,49.83388,24.03393,330.0,NaN,4.68,10.5,187.7,19 / 19,448527,2020-03-15 13:10:11:927
11.085154,-7.762002,-2.140416,8.0,49.83388,24.03393,330.0,NaN,4.68,10.5,187.7,19 / 19,449027,2020-03-15 13:10:12:427
5.99987,-7.517793,1.312023,8.0,49.83388,24.03393,330.0,NaN,4.68,10.5,187.7,19 / 19,449527,2020-03-15 13:10:12:927
11.152191,-7.053318,-2.331952,8.0,49.83388,24.03393,330.0,NaN,4.68,10.5,187.7,19 / 19,450027,2020-03-15 13:10:13:427
8.863335,-5.228936,-0.225055,8.0,49.83388,24.03393,330.0,NaN,4.68,10.5,187.7,19 / 19,450527,2020-03-15 13:10:13:927
9.097966,-3.174711,-1.541866,8.0,49.83388,24.03393,330.0,NaN,4.68,10.5,187.7,19 / 19,451027,2020-03-15 13:10:14:427
5.171476,-2.959233,-1.225831,8.0,49.83388,24.03393,330.0,NaN,4.68,10.5,187.7,19 / 19,451528,2020-03-15 13:10:14:928
4.429273,-1.211466,-2.403778,8.0,49.83388,24.03393,330.0,NaN,4.68,10.5,187.7,19 / 19,452028,2020-03-15 13:10:15:428
8.312668,-4.707,0.004788,8.0,49.83388,24.03393,330.0,NaN,4.68,10.5,187.7,19 / 19,452527,2020-03-15 13:10:15:927
14.781801,-7.326257,-4.903325,8.0,49.83388,24.03393,330.0,NaN,4.68,10.5,187.7,19 / 19,453028,2020-03-15 13:10:16:428
10.979809,-6.947973,-2.30801,8.0,49.83388,24.03393,330.0,NaN,4.68,10.5,187.7,19 / 19,453527,2020-03-15 13:10:16:927
7.364565,-9.150639,1.537078,8.0,49.83388,24.03393,330.0,NaN,4.68,10.5,187.7,19 / 19,454027,2020-03-15 13:10:17:427
12.976573,-6.928819,-1.249773,8.0,49.83388,24.03393,330.0,NaN,4.68,10.5,187.7,19 / 19,454527,2020-03-15 13:10:17:927
6.363788,-8.571242,1.331176,8.0,49.83388,24.03393,330.0,NaN,4.68,10.5,187.7,19 / 19,455028,2020-03-15 13:10:18:428
11.123461,-6.842628,-1.527501,8.0,49.83388,24.03393,330.0,NaN,4.68,10.5,187.7,19 / 19,455528,2020-03-15 13:10:18:928
10.965444,-6.478709,-4.074931,8.0,49.83388,24.03393,330.0,NaN,4.68,10.5,187.7,19 / 19,456028,2020-03-15 13:10:19:428
7.776367,-1.063026,-5.171476,8.0,49.83388,24.03393,330.0,NaN,4.68,10.5,187.7,19 / 19,456528,2020-03-15 13:10:19:928
7.398083,-6.29675,0.368707,8.0,49.83388,24.03393,330.0,NaN,4.68,10.5,187.7,19 / 19,457028,2020-03-15 13:10:20:428
14.45619,-7.627927,-5.070919,8.0,49.83388,24.03393,330.0,NaN,4.68,10.5,187.7,19 / 19,457527,2020-03-15 13:10:20:927
11.951855,-9.701305,-2.82037,8.0,49.83388,24.03393,330.0,NaN,4.68,10.5,187.7,19 / 19,458027,2020-03-15 13:10:21:427
5.363012,-8.082824,0.603339,8.0,49.83388,24.03393,330.0,NaN,4.68,10.5,187.7,19 / 19,458527,2020-03-15 13:10:21:927
13.464991,-7.489063,-1.915361,8.0,49.83388,24.03393,330.0,NaN,4.68,10.5,187.7,19 / 19,459028,2020-03-15 13:10:22:428
4.601656,-7.838616,1.369483,8.0,49.83388,24.03393,330.0,NaN,4.68,10.5,187.7,19 / 19,459528,2020-03-15 13:10:22:928
8.049306,-4.620809,0.306458,8.0,49.83388,24.03393,330.0,NaN,4.68,10.5,187.7,19 / 19,460027,2020-03-15 13:10:23:427
5.884948,-4.01747,0.181959,8.0,49.83388,24.03393,330.0,NaN,4.68,10.5,187.7,19 / 19,460527,2020-03-15 13:10:23:927
7.70933,-1.651999,-2.303222,8.0,49.83388,24.03393,330.0,NaN,4.68,10.5,187.7,19 / 19,461027,2020-03-15 13:10:24:427
8.839393,-7.757213,1.307234,8.0,49.83388,24.03393,330.0,NaN,4.68,10.5,187.7,19 / 19,461527,2020-03-15 13:10:24:927
10.04607,-6.23929,-3.490746,8.0,49.83388,24.03393,330.0,NaN,4.68,10.5,187.7,19 / 19,462027,2020-03-15 13:10:25:427
13.833697,-5.204994,-3.016694,8.0,49.83388,24.03393,330.0,NaN,4.68,10.5,187.7,19 / 19,462527,2020-03-15 13:10:25:927
6.291962,-6.751649,1.369483,8.0,49.83388,24.03393,330.0,NaN,4.68,10.5,187.7,19 / 19,463027,2020-03-15 13:10:26:427
9.873688,-5.252878,-0.646434,8.0,49.83388,24.03393,330.0,NaN,4.68,10.5,187.7,19 / 19,463527,2020-03-15 13:10:26:927
4.841076,-4.994304,-0.560243,8.0,49.83388,24.03393,330.0,NaN,4.68,10.5,187.7,19 / 19,464028,2020-03-15 13:10:27:428
4.520253,-1.728614,-1.781286,8.0,49.83388,24.03393,330.0,NaN,4.68,10.5,187.7,19 / 19,464528,2020-03-15 13:10:27:928
9.643845,-7.369353,1.010353,8.0,49.83388,24.03393,330.0,NaN,4.68,10.5,187.7,19 / 19,465027,2020-03-15 13:10:28:427
6.732496,-1.675941,-2.671929,8.0,49.83388,24.03393,330.0,NaN,4.68,10.5,187.7,19 / 19,465528,2020-03-15 13:10:28:928
8.274361,-6.631939,0.301669,8.0,49.83388,24.03393,330.0,NaN,4.68,10.5,187.7,19 / 19,466028,2020-03-15 13:10:29:428
13.670892,-7.40766,-2.595315,8.0,49.83388,24.03393,330.0,NaN,4.68,10.5,187.7,19 / 19,466528,2020-03-15 13:10:29:928
11.118672,-8.920795,-1.431733,8.0,49.83388,24.03393,330.0,NaN,4.68,10.5,187.7,19 / 19,467027,2020-03-15 13:10:30:427
6.277597,-7.43639,0.526724,8.0,49.83388,24.03393,330.0,NaN,4.68,10.5,187.7,19 / 19,467527,2020-03-15 13:10:30:927
7.747637,-4.965574,-1.187524,8.0,49.83388,24.03393,330.0,NaN,4.68,10.5,187.7,19 / 19,468028,2020-03-15 13:10:31:428
4.458004,-4.965574,-0.110133,8.0,49.83388,24.03393,330.0,NaN,4.68,10.5,187.7,19 / 19,468528,2020-03-15 13:10:31:928
6.038177,-1.867477,-1.905785,8.0,49.83388,24.03393,330.0,NaN,4.68,10.5,187.7,19 / 19,469028,2020-03-15 13:10:32:428
7.350199,-4.874594,0.354342,8.0,49.83388,24.03393,330.0,NaN,4.68,10.5,187.7,19 / 19,469527,2020-03-15 13:10:32:927
4.941633,-2.27928,-2.341529,8.0,49.83388,24.03393,330.0,NaN,4.68,10.5,187.7,19 / 19,470027,2020-03-15 13:10:33:427
7.220913,-4.036624,0.067038,8.0,49.83388,24.03393,330.0,NaN,4.68,10.5,187.7,19 / 19,470527,2020-03-15 13:10:33:927
11.372458,-6.502651,-3.313575,8.0,49.83388,24.03393,330.0,NaN,4.68,10.5,187.7,19 / 19,471028,2020-03-15 13:10:34:428
11.525687,-5.837064,-1.977611,8.0,49.83388,24.03393,330.0,NaN,4.68,10.5,187.7,19 / 19,471528,2020-03-15 13:10:34:928
7.436391,-5.3678,0.92895,8.0,49.83388,24.03393,330.0,NaN,4.68,10.5,187.7,19 / 19,472028,2020-03-15 13:10:35:428
11.348516,-6.071695,-1.369483,8.0,49.83388,24.03393,330.0,NaN,4.68,10.5,187.7,19 / 19,472527,2020-03-15 13:10:35:927
5.157111,-4.745308,0.881066,8.0,49.83388,24.03393,330.0,NaN,4.68,10.5,187.7,19 / 19,473027,2020-03-15 13:10:36:427
4.970363,-1.661576,-1.043872,8.0,49.83388,24.03393,330.0,NaN,4.68,10.5,187.7,19 / 19,473527,2020-03-15 13:10:36:927
8.566454,-6.066907,1.398214,8.0,49.83388,24.03393,330.0,NaN,4.68,10.5,187.7,19 / 19,474028,2020-03-15 13:10:37:428
13.570335,-6.119579,-1.063026,8.0,49.83388,24.03393,330.0,NaN,4.68,10.5,187.7,19 / 19,474528,2020-03-15 13:10:37:928
9.232041,-4.314351,1.594538,8.0,49.83388,24.03393,330.0,NaN,4.68,10.5,187.7,19 / 19,475027,2020-03-15 13:10:38:427
14.556746,-5.056554,-0.612916,8.0,49.83388,24.03393,330.0,NaN,4.68,10.5,187.7,19 / 19,475527,2020-03-15 13:10:38:927
14.700398,-5.985504,-2.705448,8.0,49.83388,24.03393,330.0,NaN,4.68,10.5,187.7,19 / 19,476027,2020-03-15 13:10:39:427
4.568137,-6.143522,1.268927,8.0,49.83388,24.03393,330.0,NaN,4.68,10.5,187.7,19 / 19,476528,2020-03-15 13:10:39:928
6.584055,-2.284068,0.181959,8.0,49.83388,24.03393,330.0,NaN,4.68,10.5,187.7,19 / 19,477027,2020-03-15 13:10:40:427
6.646304,-3.591303,1.307234,8.0,49.83388,24.03393,330.0,NaN,4.68,10.5,187.7,19 / 19,477527,2020-03-15 13:10:40:927
13.493721,-0.502782,-4.065354,8.0,49.83388,24.03393,330.0,NaN,4.68,10.5,187.7,19 / 19,478027,2020-03-15 13:10:41:427
12.181698,-6.282385,-1.326388,8.0,49.83388,24.03393,330.0,NaN,4.68,10.5,187.7,19 / 19,478527,2020-03-15 13:10:41:927
14.911088,-0.737414,-4.649539,8.0,49.83388,24.03393,330.0,NaN,4.68,10.5,187.7,19 / 19,479028,2020-03-15 13:10:42:428
11.87524,-3.931279,-0.191536,8.0,49.83388,24.03393,330.0,NaN,4.68,10.5,187.7,19 / 19,479527,2020-03-15 13:10:42:927
7.972692,-8.66701,0.42138,8.0,49.83388,24.03393,330.0,NaN,4.68,10.5,187.7,19 / 19,480028,2020-03-15 13:10:43:428
13.28782,-5.48751,2.576161,8.0,49.83388,24.03393,330.0,NaN,4.68,10.5,187.7,19 / 19,480527,2020-03-15 13:10:43:927
5.090073,-5.286397,0.162806,8.0,49.83388,24.03393,330.0,NaN,4.68,10.5,187.7,19 / 19,481027,2020-03-15 13:10:44:427
4.821923,-2.715025,0.349553,8.0,49.83388,24.03393,330.0,NaN,4.68,10.5,187.7,19 / 19,481527,2020-03-15 13:10:44:927
7.11078,-4.098873,0.6608,8.0,49.83388,24.03393,330.0,NaN,4.68,10.5,187.7,19 / 19,482027,2020-03-15 13:10:45:427
14.140155,-2.983175,-6.971915,8.0,49.83388,24.03393,330.0,NaN,4.68,10.5,187.7,19 / 19,482527,2020-03-15 13:10:45:927
12.129025,-4.49631,-0.857124,8.0,49.83388,24.03393,330.0,NaN,4.68,10.5,187.7,19 / 19,483027,2020-03-15 13:10:46:427
11.84651,-8.116343,-1.163582,8.0,49.83388,24.03393,330.0,NaN,4.68,10.5,187.7,19 / 19,483528,2020-03-15 13:10:46:928
10.79785,-6.014234,0.976834,8.0,49.83388,24.03393,330.0,NaN,4.68,10.5,187.7,19 / 19,484028,2020-03-15 13:10:47:428
5.45878,-8.087613,1.939303,8.0,49.83388,24.03393,330.0,NaN,4.68,10.5,187.7,19 / 19,484528,2020-03-15 13:10:47:928
17.343597,-0.885855,1.546654,8.0,49.83388,24.03393,330.0,NaN,4.68,10.5,187.7,19 / 19,485028,2020-03-15 13:10:48:428
4.276045,-4.127603,0.043096,8.0,49.83388,24.03393,330.0,NaN,4.68,10.5,187.7,19 / 19,485528,2020-03-15 13:10:48:928
7.283162,-0.732626,-0.847547,8.0,49.83388,24.03393,330.0,NaN,4.68,10.5,187.7,19 / 19,486028,2020-03-15 13:10:49:428
8.264784,-6.933608,0.373495,8.0,49.83388,24.03393,330.0,NaN,4.68,10.5,187.7,19 / 19,486528,2020-03-15 13:10:49:928
14.030022,-5.549759,-0.68953,8.0,49.83388,24.03393,330.0,NaN,4.68,10.5,187.7,19 / 19,487028,2020-03-15 13:10:50:428
10.91756,-6.871359,-0.411803,8.0,49.83388,24.03393,330.0,NaN,4.68,10.5,187.7,19 / 19,487528,2020-03-15 13:10:50:928
11.7268,-5.822698,1.776498,8.0,49.83388,24.03393,330.0,NaN,4.68,10.5,187.7,19 / 19,488028,2020-03-15 13:10:51:428
18.018763,-4.726154,-1.781286,8.0,49.83388,24.03393,330.0,NaN,4.68,10.5,187.7,19 / 19,488528,2020-03-15 13:10:51:928
6.272809,-5.985504,-0.651223,8.0,49.83388,24.03393,330.0,NaN,4.68,10.5,187.7,19 / 19,489028,2020-03-15 13:10:52:428
4.874595,-2.60968,-0.986411,8.0,49.83388,24.03393,330.0,NaN,4.68,10.5,187.7,19 / 19,489527,2020-03-15 13:10:52:927
6.59842,-4.175488,0.497994,8.0,49.83388,24.03393,330.0,NaN,4.68,10.5,187.7,19 / 19,490027,2020-03-15 13:10:53:427
12.282255,-2.346318,-2.619257,8.0,49.83388,24.03393,330.0,NaN,4.68,10.5,187.7,19 / 19,490527,2020-03-15 13:10:53:927
12.617443,-5.233725,-1.431733,8.0,49.83388,24.03393,330.0,NaN,4.68,10.5,187.7,19 / 19,491027,2020-03-15 13:10:54:427
9.715671,-4.55856,-2.54743,8.0,49.83388,24.03393,330.0,NaN,4.68,10.5,187.7,19 / 19,491527,2020-03-15 13:10:54:927
12.315774,-5.204994,-0.565032,8.0,49.83388,24.03393,330.0,NaN,4.68,10.5,187.7,19 / 19,492028,2020-03-15 13:10:55:428
8.8777,-9.002198,0.608127,8.0,49.83388,24.03393,330.0,NaN,4.68,10.5,187.7,19 / 19,492527,2020-03-15 13:10:55:927
11.956643,-5.348646,-1.039083,8.0,49.83388,24.03393,330.0,NaN,4.68,10.5,187.7,19 / 19,493027,2020-03-15 13:10:56:427
5.439626,-3.773262,-0.277727,8.0,49.83388,24.03393,330.0,NaN,4.68,10.5,187.7,19 / 19,493527,2020-03-15 13:10:56:927
4.994305,-1.115698,-0.177171,8.0,49.83388,24.03393,330.0,NaN,4.68,10.5,187.7,19 / 19,494027,2020-03-15 13:10:57:427
9.184157,-5.755661,-0.78051,8.0,49.83388,24.03393,330.0,NaN,4.68,10.5,187.7,19 / 19,494527,2020-03-15 13:10:57:927
15.571888,-4.793192,0.976834,8.0,49.83388,24.03393,330.0,NaN,4.68,10.5,187.7,19 / 19,495028,2020-03-15 13:10:58:428
12.181698,-6.440402,-0.435745,8.0,49.83388,24.03393,330.0,NaN,4.68,10.5,187.7,19 / 19,495528,2020-03-15 13:10:58:928
10.395624,-5.81791,3.236961,8.0,49.83388,24.03393,330.0,NaN,4.68,10.5,187.7,19 / 19,496028,2020-03-15 13:10:59:428
14.642938,-4.362235,-1.278504,8.0,49.83388,24.03393,330.0,NaN,4.68,10.5,187.7,19 / 19,496528,2020-03-15 13:10:59:928
6.339846,-6.263232,1.364695,8.0,49.83388,24.03393,330.0,NaN,4.68,10.5,187.7,19 / 19,497028,2020-03-15 13:11:00:428
9.864111,-2.418144,-0.981623,8.0,49.83388,24.03393,330.0,NaN,4.68,10.5,187.7,19 / 19,497527,2020-03-15 13:11:00:927
5.525818,-3.773262,-0.186748,8.0,49.83388,24.03393,330.0,NaN,4.68,10.5,187.7,0 / 0,498027,2020-03-15 13:11:01:427
7.335834,-0.723049,-0.723049,8.0,49.83388,24.03393,330.0,NaN,4.68,10.5,187.7,3 / 3,498528,2020-03-15 13:11:01:928
9.045294,-4.740519,0.92895,8.0,49.83388,24.03393,330.0,NaN,4.68,10.5,187.7,4 / 4,499027,2020-03-15 13:11:02:427
11.908759,-5.382165,-0.033519,8.0,49.83388,24.03393,330.0,NaN,4.68,10.5,187.7,5 / 5,499527,2020-03-15 13:11:02:927
12.65575,-4.831499,-2.035071,8.0,49.83388,24.03393,330.0,NaN,4.68,10.5,187.7,5 / 5,500028,2020-03-15 13:11:03:428
8.18817,-7.206547,1.01993,8.0,49.83388,24.03393,330.0,NaN,4.68,10.5,187.7,19 / 20,500527,2020-03-15 13:11:03:927
11.688493,-5.803545,-2.145205,8.0,49.83388,24.03393,330.0,NaN,4.68,10.5,187.7,19 / 20,501028,2020-03-15 13:11:04:428
6.636728,-6.435614,1.762132,8.0,49.833363,24.034903,328.0,NaN,4.032,10.0,85.9,21 / 22,501527,2020-03-15 13:11:04:927
13.718776,-2.15957,0.488417,8.0,49.833363,24.034903,328.0,NaN,4.032,10.0,85.9,21 / 22,502027,2020-03-15 13:11:05:427
4.10845,-4.386177,1.297657,8.0,49.833363,24.034903,328.0,NaN,4.032,10.0,85.9,21 / 22,502527,2020-03-15 13:11:05:927
5.81791,-1.455675,-1.264138,8.0,49.833363,24.034903,328.0,NaN,4.032,10.0,85.9,21 / 22,503027,2020-03-15 13:11:06:427
8.51857,-5.080496,1.058237,8.0,49.833363,24.034903,328.0,NaN,4.032,10.0,85.9,21 / 22,503527,2020-03-15 13:11:06:927
12.847286,-6.545747,-2.566584,8.0,49.833363,24.034903,328.0,NaN,4.032,10.0,85.9,21 / 22,504028,2020-03-15 13:11:07:428
13.053187,-6.114791,0.095768,8.0,49.833363,24.034903,328.0,NaN,4.032,10.0,85.9,21 / 22,504528,2020-03-15 13:11:07:928
8.2169,-8.255207,1.024718,8.0,49.833363,24.034903,328.0,NaN,4.032,10.0,85.9,21 / 22,505028,2020-03-15 13:11:08:428
15.5671,-4.860229,1.091756,8.0,49.833363,24.034903,328.0,NaN,4.032,10.0,85.9,21 / 22,505527,2020-03-15 13:11:08:927
5.137957,-4.271256,0.785298,8.0,49.833363,24.034903,328.0,NaN,4.032,10.0,85.9,21 / 22,506027,2020-03-15 13:11:09:427
3.897761,-1.340753,-1.364695,8.0,49.833363,24.034903,328.0,NaN,4.032,10.0,85.9,21 / 22,506527,2020-03-15 13:11:09:927
3.883395,-4.61602,0.488417,8.0,49.833363,24.034903,328.0,NaN,4.032,10.0,85.9,21 / 22,507028,2020-03-15 13:11:10:428
6.200983,-1.359906,-0.244209,8.0,49.833363,24.034903,328.0,NaN,4.032,10.0,85.9,21 / 22,507527,2020-03-15 13:11:10:927
7.632715,-4.778826,1.197101,8.0,49.833363,24.034903,328.0,NaN,4.032,10.0,85.9,21 / 22,508027,2020-03-15 13:11:11:427
13.426683,-6.588843,-5.0374,8.0,49.833363,24.034903,328.0,NaN,4.032,10.0,85.9,21 / 22,508527,2020-03-15 13:11:11:927
12.363658,-5.583278,-0.502782,8.0,49.833363,24.034903,328.0,NaN,4.032,10.0,85.9,21 / 22,509027,2020-03-15 13:11:12:427
6.83784,-9.753978,2.030283,8.0,49.833363,24.034903,328.0,NaN,4.032,10.0,85.9,21 / 22,509527,2020-03-15 13:11:12:927
15.313314,-2.700659,1.288081,8.0,49.833363,24.034903,328.0,NaN,4.032,10.0,85.9,21 / 22,510027,2020-03-15 13:11:13:427
4.625598,-7.383718,1.225831,8.0,49.833363,24.034903,328.0,NaN,4.032,10.0,85.9,21 / 22,510527,2020-03-15 13:11:13:927
6.622362,-2.767697,-0.967257,8.0,49.833363,24.034903,328.0,NaN,4.032,10.0,85.9,21 / 22,511027,2020-03-15 13:11:14:427
7.182606,-4.49631,1.819593,8.0,49.833363,24.034903,328.0,NaN,4.032,10.0,85.9,21 / 22,511527,2020-03-15 13:11:14:927
2.413355,-1.996764,0.158017,8.0,49.833363,24.034903,328.0,NaN,4.032,10.0,85.9,21 / 22,512027,2020-03-15 13:11:15:427
9.323022,-4.247314,-0.263362,8.0,49.833363,24.034903,328.0,NaN,4.032,10.0,85.9,21 / 22,512527,2020-03-15 13:11:15:927
13.857639,-8.259995,-4.793192,8.0,49.833363,24.034903,328.0,NaN,4.032,10.0,85.9,21 / 22,513027,2020-03-15 13:11:16:427
10.247183,-7.982268,-0.354342,8.0,49.833363,24.034903,328.0,NaN,4.032,10.0,85.9,21 / 22,513527,2020-03-15 13:11:16:927
5.645528,-7.565677,2.303222,8.0,49.833363,24.034903,328.0,NaN,4.032,10.0,85.9,21 / 22,514027,2020-03-15 13:11:17:427
13.680469,-3.136404,1.015142,8.0,49.833363,24.034903,328.0,NaN,4.032,10.0,85.9,21 / 22,514527,2020-03-15 13:11:17:927
4.477157,-4.381389,-0.047884,8.0,49.833363,24.034903,328.0,NaN,4.032,10.0,85.9,21 / 22,515028,2020-03-15 13:11:18:428
3.60088,-1.790863,1.268927,8.0,49.833363,24.034903,328.0,NaN,4.032,10.0,85.9,21 / 22,515528,2020-03-15 13:11:18:928
