ACCELEROMETER X (m/s²),ACCELEROMETER Y (m/s²),ACCELEROMETER Z (m/s²),PROXIMITY (m),LOCATION Latitude : ,LOCATION Longitude : ,LOCATION Altitude ( m),LOCATION Altitude-google ( m),LOCATION Speed ( Kmh),LOCATION Accuracy ( m),LOCATION ORIENTATION (°),Satellites in range,Time since start in ms ,YYYY-MO-DD HH-MI-SS_SSS
2.418144,7.211336,14.633361,8.0,49.825565,24.039001,351.0,NaN,2.232,9.5,0.0,0 / 3,15,2020-03-17 13:51:56:934
11.329363,-5.923255,6.071696,8.0,49.825565,24.039001,351.0,NaN,2.232,9.5,0.0,0 / 3,515,2020-03-17 13:51:57:434
6.564901,-4.855441,0.172383,8.0,49.825565,24.039001,351.0,NaN,2.232,9.5,0.0,0 / 9,1015,2020-03-17 13:51:57:934
11.281479,-2.806004,0.47884,8.0,49.825565,24.039001,351.0,NaN,2.232,9.5,0.0,0 / 9,1515,2020-03-17 13:51:58:434
7.733272,-8.03494,1.623269,8.0,49.825565,24.039001,351.0,NaN,2.232,9.5,0.0,18 / 18,2015,2020-03-17 13:51:58:934
11.506534,-7.359776,2.710236,8.0,49.825565,24.039001,351.0,NaN,2.232,9.5,0.0,18 / 18,2515,2020-03-17 13:51:59:434
13.546393,-6.009446,1.489194,8.0,49.825676,24.039,349.0,NaN,5.544,11.0,23.9,19 / 19,3016,2020-03-17 13:51:59:935
6.244078,-8.901642,3.361459,8.0,49.825676,24.039,349.0,NaN,5.544,11.0,23.9,19 / 19,3515,2020-03-17 13:52:00:434
11.899182,-5.530606,1.091756,8.0,49.825676,24.039,349.0,NaN,5.544,11.0,23.9,19 / 19,4015,2020-03-17 13:52:00:934
6.244078,-7.97748,0.699107,8.0,49.825676,24.039,349.0,NaN,5.544,11.0,23.9,19 / 19,4516,2020-03-17 13:52:01:435
15.883134,-4.611232,1.886631,8.0,49.825676,24.039,349.0,NaN,5.544,11.0,23.9,19 / 19,5015,2020-03-17 13:52:01:934
6.545748,-4.82671,-0.47884,8.0,49.825676,24.039,349.0,NaN,5.544,11.0,23.9,19 / 19,5515,2020-03-17 13:52:02:434
8.06846,-3.428497,-0.47884,8.0,49.825676,24.039,349.0,NaN,5.544,11.0,23.9,19 / 19,6015,2020-03-17 13:52:02:934
5.434838,-3.835511,1.168371,8.0,49.825676,24.039,349.0,NaN,5.544,11.0,23.9,19 / 19,6515,2020-03-17 13:52:03:434
11.008539,-0.957681,1.68073,8.0,49.825676,24.039,349.0,NaN,5.544,11.0,23.9,19 / 19,7015,2020-03-17 13:52:03:934
9.509769,-6.191406,2.552219,8.0,49.825676,24.039,349.0,NaN,5.544,11.0,23.9,19 / 19,7515,2020-03-17 13:52:04:434
9.294291,-0.272939,-3.016694,8.0,49.825676,24.039,349.0,NaN,5.544,11.0,23.9,19 / 19,8015,2020-03-17 13:52:04:934
6.359,-6.042965,1.781286,8.0,49.825676,24.039,349.0,NaN,5.544,11.0,23.9,19 / 19,8515,2020-03-17 13:52:05:434
10.333375,-7.881712,0.756568,8.0,49.825676,24.039,349.0,NaN,5.544,11.0,23.9,19 / 19,9015,2020-03-17 13:52:05:934
12.181698,-5.951985,0.943315,8.0,49.825676,24.039,349.0,NaN,5.544,11.0,23.9,19 / 19,9515,2020-03-17 13:52:06:434
5.573702,-10.67814,1.235408,8.0,49.825676,24.039,349.0,NaN,5.544,11.0,23.9,19 / 19,10015,2020-03-17 13:52:06:934
18.92377,-4.620809,3.303998,8.0,49.825676,24.039,349.0,NaN,5.544,11.0,23.9,19 / 19,10515,2020-03-17 13:52:07:434
5.568913,-7.019799,-0.301669,8.0,49.825676,24.039,349.0,NaN,5.544,11.0,23.9,19 / 19,11016,2020-03-17 13:52:07:935
7.996634,-4.367024,0.550666,8.0,49.825676,24.039,349.0,NaN,5.544,11.0,23.9,19 / 19,11516,2020-03-17 13:52:08:435
5.056554,-8.90643,0.895431,8.0,49.825676,24.039,349.0,NaN,5.544,11.0,23.9,19 / 19,12015,2020-03-17 13:52:08:934
9.911995,-4.338293,-0.804452,8.0,49.825676,24.039,349.0,NaN,5.544,11.0,23.9,19 / 19,12515,2020-03-17 13:52:09:434
5.118803,-4.43885,0.612916,8.0,49.825676,24.039,349.0,NaN,5.544,11.0,23.9,19 / 19,13015,2020-03-17 13:52:09:934
8.805874,-0.933739,-1.460463,8.0,49.825676,24.039,349.0,NaN,5.544,11.0,23.9,19 / 19,13516,2020-03-17 13:52:10:435
8.456321,-6.540959,1.412579,8.0,49.825676,24.039,349.0,NaN,5.544,11.0,23.9,19 / 19,14015,2020-03-17 13:52:10:934
14.030022,-7.249643,-0.766144,8.0,49.825676,24.039,349.0,NaN,5.544,11.0,23.9,19 / 19,14515,2020-03-17 13:52:11:434
13.690045,-5.358223,2.082955,8.0,49.825676,24.039,349.0,NaN,5.544,11.0,23.9,19 / 19,15015,2020-03-17 13:52:11:934
7.23049,-6.224924,0.876278,8.0,49.825676,24.039,349.0,NaN,5.544,11.0,23.9,19 / 19,15516,2020-03-17 13:52:12:435
2.743755,2.75812,10.141838,8.0,49.825676,24.039,349.0,NaN,5.544,11.0,23.9,19 / 19,16015,2020-03-17 13:52:12:934
2.145205,3.399767,11.712435,8.0,49.825676,24.039,349.0,NaN,5.544,11.0,23.9,19 / 19,16516,2020-03-17 13:52:13:435
0.493206,4.989517,7.340623,8.0,49.825676,24.039,349.0,NaN,5.544,11.0,23.9,19 / 19,17015,2020-03-17 13:52:13:934
2.298434,3.773262,5.784392,8.0,49.825676,24.039,349.0,NaN,5.544,11.0,23.9,19 / 19,17515,2020-03-17 13:52:14:434
1.82917,1.61848,7.11078,8.0,49.825676,24.039,349.0,NaN,5.544,11.0,23.9,19 / 19,18015,2020-03-17 13:52:14:934
4.477157,1.896208,0.986411,8.0,49.825676,24.039,349.0,NaN,5.544,11.0,23.9,19 / 19,18515,2020-03-17 13:52:15:434
16.19917,-4.256891,1.685518,8.0,49.825676,24.039,349.0,NaN,5.544,11.0,23.9,19 / 19,19016,2020-03-17 13:52:15:935
12.382812,-6.421249,1.857901,8.0,49.825676,24.039,349.0,NaN,5.544,11.0,23.9,19 / 19,19515,2020-03-17 13:52:16:434
11.477803,-7.493851,1.479617,8.0,49.825676,24.039,349.0,NaN,5.544,11.0,23.9,19 / 19,20016,2020-03-17 13:52:16:935
12.603078,-7.302315,3.045425,8.0,49.825676,24.039,349.0,NaN,5.544,11.0,23.9,19 / 19,20515,2020-03-17 13:52:17:434
6.445191,-9.169792,2.284068,8.0,49.825676,24.039,349.0,NaN,5.544,11.0,23.9,19 / 19,21015,2020-03-17 13:52:17:934
11.573571,-5.664681,0.890643,8.0,49.825676,24.039,349.0,NaN,5.544,11.0,23.9,19 / 19,21516,2020-03-17 13:52:18:435
11.15698,-3.122039,3.045425,8.0,49.825676,24.039,349.0,NaN,5.544,11.0,23.9,19 / 19,22016,2020-03-17 13:52:18:935
4.189853,3.495535,5.81791,8.0,49.825676,24.039,349.0,NaN,5.544,11.0,23.9,19 / 19,22515,2020-03-17 13:52:19:434
6.052542,4.213795,8.063671,8.0,49.825676,24.039,349.0,NaN,5.544,11.0,23.9,19 / 19,23015,2020-03-17 13:52:19:934
3.672706,1.814805,9.672575,8.0,49.825676,24.039,349.0,NaN,5.544,11.0,23.9,19 / 19,23515,2020-03-17 13:52:20:434
1.398214,2.815581,9.241618,8.0,49.825676,24.039,349.0,NaN,5.544,11.0,23.9,19 / 19,24015,2020-03-17 13:52:20:934
2.954445,2.710236,8.202535,8.0,49.825676,24.039,349.0,NaN,5.544,11.0,23.9,19 / 19,24515,2020-03-17 13:52:21:434
0.770933,2.509123,9.500193,8.0,49.825676,24.039,349.0,NaN,5.544,11.0,23.9,19 / 19,25016,2020-03-17 13:52:21:935
3.39019,4.285621,10.802638,8.0,49.825676,24.039,349.0,NaN,5.544,11.0,23.9,19 / 19,25515,2020-03-17 13:52:22:434
3.696648,4.754885,10.67814,8.0,49.825676,24.039,349.0,NaN,5.544,11.0,23.9,19 / 19,26015,2020-03-17 13:52:22:934
3.275268,4.232949,7.575254,8.0,49.825676,24.039,349.0,NaN,5.544,11.0,23.9,19 / 19,26516,2020-03-17 13:52:23:435
1.187524,3.533842,4.802769,8.0,49.825676,24.039,349.0,NaN,5.544,11.0,23.9,19 / 19,27016,2020-03-17 13:52:23:935
3.916914,0.493206,0.464475,8.0,49.825676,24.039,349.0,NaN,5.544,11.0,23.9,19 / 19,27515,2020-03-17 13:52:24:434
12.761095,-5.386954,-0.708684,8.0,49.825676,24.039,349.0,NaN,5.544,11.0,23.9,19 / 19,28015,2020-03-17 13:52:24:934
6.991069,-3.524265,1.345541,8.0,49.825676,24.039,349.0,NaN,5.544,11.0,23.9,19 / 19,28515,2020-03-17 13:52:25:434
10.400413,-4.922478,0.59855,8.0,49.825676,24.039,349.0,NaN,5.544,11.0,23.9,19 / 19,29015,2020-03-17 13:52:25:934
11.947066,-6.976703,-0.081403,8.0,49.825676,24.039,349.0,NaN,5.544,11.0,23.9,19 / 19,29515,2020-03-17 13:52:26:434
3.083732,-4.687847,-1.628057,8.0,49.825676,24.039,349.0,NaN,5.544,11.0,23.9,19 / 19,30015,2020-03-17 13:52:26:934
14.705187,-5.995081,3.236961,8.0,49.825676,24.039,349.0,NaN,5.544,11.0,23.9,19 / 19,30515,2020-03-17 13:52:27:434
5.803545,-5.06613,7.704541,0.0,49.825676,24.039,349.0,NaN,5.544,11.0,23.9,19 / 19,31015,2020-03-17 13:52:27:934
4.970363,-5.39653,-1.795651,0.0,49.825676,24.039,349.0,NaN,5.544,11.0,23.9,19 / 19,31515,2020-03-17 13:52:28:434
7.153875,-6.066907,0.292093,0.0,49.825676,24.039,349.0,NaN,5.544,11.0,23.9,19 / 19,32015,2020-03-17 13:52:28:934
1.436521,-1.752556,-0.095768,0.0,49.825676,24.039,349.0,NaN,5.544,11.0,23.9,19 / 19,32516,2020-03-17 13:52:29:435
-2.336741,-7.565677,4.481946,0.0,49.825676,24.039,349.0,NaN,5.544,11.0,23.9,19 / 19,33016,2020-03-17 13:52:29:935
4.429273,-14.116213,-0.306458,0.0,49.825676,24.039,349.0,NaN,5.544,11.0,23.9,19 / 19,33515,2020-03-17 13:52:30:434
-0.416591,-14.245501,11.080365,0.0,49.825676,24.039,349.0,NaN,5.544,11.0,23.9,19 / 19,34015,2020-03-17 13:52:30:934
7.876924,-13.603854,-6.210559,0.0,49.825676,24.039,349.0,NaN,5.544,11.0,23.9,19 / 19,34516,2020-03-17 13:52:31:435
2.001553,-9.667787,-6.042965,0.0,49.825676,24.039,349.0,NaN,5.544,11.0,23.9,19 / 19,35015,2020-03-17 13:52:31:934
10.290278,-8.90643,-8.748413,0.0,49.825676,24.039,349.0,NaN,5.544,11.0,23.9,19 / 19,35515,2020-03-17 13:52:32:434
2.288857,-2.202665,-2.312799,0.0,49.825676,24.039,349.0,NaN,5.544,11.0,23.9,19 / 19,36015,2020-03-17 13:52:32:934
8.839393,-10.888829,2.403779,0.0,49.825676,24.039,349.0,NaN,5.544,11.0,23.9,19 / 19,36515,2020-03-17 13:52:33:434
1.393425,-10.491392,-10.237606,0.0,49.825676,24.039,349.0,NaN,5.544,11.0,23.9,19 / 19,37015,2020-03-17 13:52:33:934
4.055778,-5.707777,2.025495,0.0,49.825676,24.039,349.0,NaN,5.544,11.0,23.9,19 / 19,37515,2020-03-17 13:52:34:434
0.383072,-4.34787,3.620033,0.0,49.825676,24.039,349.0,NaN,5.544,11.0,23.9,19 / 19,38016,2020-03-17 13:52:34:935
7.129933,-8.346187,-13.067553,0.0,49.825676,24.039,349.0,NaN,5.544,11.0,23.9,19 / 19,38515,2020-03-17 13:52:35:434
-0.014365,-20.566193,-3.945644,0.0,49.825676,24.039,349.0,NaN,5.544,11.0,23.9,19 / 19,39015,2020-03-17 13:52:35:934
4.304775,1.857901,3.251326,0.0,49.825676,24.039,349.0,NaN,5.544,11.0,23.9,19 / 19,39515,2020-03-17 13:52:36:434
11.688493,-9.691729,-0.435745,0.0,49.825676,24.039,349.0,NaN,5.544,11.0,23.9,19 / 19,40015,2020-03-17 13:52:36:934
-6.727707,2.537854,1.742979,0.0,49.825676,24.039,349.0,NaN,5.544,11.0,23.9,19 / 19,40515,2020-03-17 13:52:37:434
12.23437,-11.626244,-1.968034,0.0,49.825676,24.039,349.0,NaN,5.544,11.0,23.9,19 / 19,41015,2020-03-17 13:52:37:934
4.903325,-3.931279,-7.61835,0.0,49.825676,24.039,349.0,NaN,5.544,11.0,23.9,19 / 19,41515,2020-03-17 13:52:38:434
7.551312,-8.523358,-5.027823,0.0,49.825676,24.039,349.0,NaN,5.544,11.0,23.9,19 / 19,42016,2020-03-17 13:52:38:935
-1.513135,-0.962469,3.155558,0.0,49.825676,24.039,349.0,NaN,5.544,11.0,23.9,19 / 19,42515,2020-03-17 13:52:39:434
3.691859,-4.247314,-3.265691,0.0,49.825676,24.039,349.0,NaN,5.544,11.0,23.9,19 / 19,43015,2020-03-17 13:52:39:934
12.871228,-5.233725,-0.440533,0.0,49.825676,24.039,349.0,NaN,5.544,11.0,23.9,19 / 19,43515,2020-03-17 13:52:40:434
10.840945,-14.384364,1.058237,0.0,49.825676,24.039,349.0,NaN,5.544,11.0,23.9,19 / 19,44015,2020-03-17 13:52:40:934
11.032481,-7.398083,-0.47884,0.0,49.825676,24.039,349.0,NaN,5.544,11.0,23.9,19 / 19,44516,2020-03-17 13:52:41:435
5.12838,-9.433155,0.876278,0.0,49.825676,24.039,349.0,NaN,5.544,11.0,23.9,19 / 19,45015,2020-03-17 13:52:41:934
2.207454,-13.182474,-1.690306,0.0,49.825676,24.039,349.0,NaN,5.544,11.0,23.9,19 / 19,45515,2020-03-17 13:52:42:434
-2.748543,-23.070528,-10.381259,0.0,49.825676,24.039,349.0,NaN,5.544,11.0,23.9,19 / 19,46015,2020-03-17 13:52:42:934
10.639832,-8.12592,-7.608773,0.0,49.825676,24.039,349.0,NaN,5.544,11.0,23.9,19 / 19,46515,2020-03-17 13:52:43:434
3.725378,-2.662352,-5.66947,0.0,49.825676,24.039,349.0,NaN,5.544,11.0,23.9,19 / 19,47016,2020-03-17 13:52:43:935
5.300763,-4.472368,0.244209,0.0,49.825676,24.039,349.0,NaN,5.544,11.0,23.9,19 / 19,47515,2020-03-17 13:52:44:434
12.263102,-4.630386,-0.493206,0.0,49.825676,24.039,349.0,NaN,5.544,11.0,23.9,19 / 19,48015,2020-03-17 13:52:44:934
4.74052,-5.085284,-0.23942,0.0,49.825676,24.039,349.0,NaN,5.544,11.0,23.9,19 / 19,48515,2020-03-17 13:52:45:434
9.437943,-6.291962,0.603339,0.0,49.825676,24.039,349.0,NaN,5.544,11.0,23.9,19 / 19,49015,2020-03-17 13:52:45:934
5.444415,-9.289502,2.576161,0.0,49.825676,24.039,349.0,NaN,5.544,11.0,23.9,19 / 19,49516,2020-03-17 13:52:46:435
4.965575,-14.772224,-5.147533,0.0,49.825676,24.039,349.0,NaN,5.544,11.0,23.9,19 / 19,50016,2020-03-17 13:52:46:935
-4.419696,-15.461755,-8.542512,0.0,49.825676,24.039,349.0,NaN,5.544,11.0,23.9,19 / 19,50515,2020-03-17 13:52:47:434
10.060435,-9.093178,-3.371036,0.0,49.825676,24.039,349.0,NaN,5.544,11.0,23.9,19 / 19,51015,2020-03-17 13:52:47:934
-0.488417,-2.60968,0.871489,0.0,49.825676,24.039,349.0,NaN,5.544,11.0,23.9,19 / 19,51515,2020-03-17 13:52:48:434
5.602432,-4.232949,-0.483629,0.0,49.825676,24.039,349.0,NaN,5.544,11.0,23.9,19 / 19,52016,2020-03-17 13:52:48:935
-1.623269,-2.513912,1.522712,0.0,49.825676,24.039,349.0,NaN,5.544,11.0,23.9,19 / 19,52515,2020-03-17 13:52:49:434
4.821923,-4.328717,-2.39899,0.0,49.825676,24.039,349.0,NaN,5.544,11.0,23.9,19 / 19,53015,2020-03-17 13:52:49:934
2.116475,-9.366117,-0.220267,0.0,49.825676,24.039,349.0,NaN,5.544,11.0,23.9,19 / 19,53515,2020-03-17 13:52:50:434
5.195418,-18.612524,-0.411803,0.0,49.825676,24.039,349.0,NaN,5.544,11.0,23.9,19 / 19,54015,2020-03-17 13:52:50:934
9.854534,-14.097059,-4.252102,0.0,49.825676,24.039,349.0,NaN,5.544,11.0,23.9,19 / 19,54515,2020-03-17 13:52:51:434
3.725378,-0.641646,-8.092401,0.0,49.825676,24.039,349.0,NaN,5.544,11.0,23.9,19 / 19,55015,2020-03-17 13:52:51:934
4.491523,-8.010998,-1.40779,0.0,49.825676,24.039,349.0,NaN,5.544,11.0,23.9,19 / 19,55515,2020-03-17 13:52:52:434
-2.590526,-4.156334,1.067814,0.0,49.825676,24.039,349.0,NaN,5.544,11.0,23.9,19 / 19,56015,2020-03-17 13:52:52:934
0.957681,-7.264008,4.146757,0.0,49.825676,24.039,349.0,NaN,5.544,11.0,23.9,19 / 19,56515,2020-03-17 13:52:53:434
-0.71826,-5.96635,0.56982,0.0,49.825676,24.039,349.0,NaN,5.544,11.0,23.9,19 / 19,57015,2020-03-17 13:52:53:934
6.191406,-11.142614,-0.995988,0.0,49.825676,24.039,349.0,NaN,5.544,11.0,23.9,19 / 19,57516,2020-03-17 13:52:54:435
5.305551,-15.758636,4.505888,0.0,49.825676,24.039,349.0,NaN,5.544,11.0,23.9,19 / 19,58015,2020-03-17 13:52:54:934
0.387861,-13.814544,-0.588974,0.0,49.825676,24.039,349.0,NaN,5.544,11.0,23.9,19 / 19,58515,2020-03-17 13:52:55:434
9.361329,-9.950302,-4.975151,0.0,49.825676,24.039,349.0,NaN,5.544,11.0,23.9,19 / 19,59015,2020-03-17 13:52:55:934
-2.197877,-3.035848,1.73819,0.0,49.825676,24.039,349.0,NaN,5.544,11.0,23.9,19 / 19,59515,2020-03-17 13:52:56:434
3.371036,-6.110002,-4.218583,0.0,49.825676,24.039,349.0,NaN,5.544,11.0,23.9,19 / 19,60015,2020-03-17 13:52:56:934
-3.423708,-5.880159,1.244985,0.0,49.825676,24.039,349.0,NaN,5.544,11.0,23.9,19 / 19,60516,2020-03-17 13:52:57:435
4.759673,-10.984597,0.124498,0.0,49.825676,24.039,349.0,NaN,5.544,11.0,23.9,19 / 19,61016,2020-03-17 13:52:57:935
4.616021,-14.920665,4.716578,0.0,49.825676,24.039,349.0,NaN,5.544,11.0,23.9,19 / 19,61515,2020-03-17 13:52:58:434
-4.19943,-3.246537,9.758766,0.0,49.825676,24.039,349.0,NaN,5.544,11.0,23.9,19 / 19,62015,2020-03-17 13:52:58:934
8.657434,-10.012551,-2.193089,0.0,49.825676,24.039,349.0,NaN,5.544,11.0,23.9,19 / 19,62516,2020-03-17 13:52:59:435
2.451663,-3.308787,-5.382165,0.0,49.825676,24.039,349.0,NaN,5.544,11.0,23.9,19 / 19,63015,2020-03-17 13:52:59:934
4.256891,-4.936844,-1.814805,0.0,49.825676,24.039,349.0,NaN,5.544,11.0,23.9,19 / 19,63515,2020-03-17 13:53:00:434
7.694965,-6.382941,1.297657,0.0,49.825676,24.039,349.0,NaN,5.544,11.0,23.9,19 / 19,64016,2020-03-17 13:53:00:935
3.883395,-4.304775,-2.590526,0.0,49.825676,24.039,349.0,NaN,5.544,11.0,23.9,0 / 0,64515,2020-03-17 13:53:01:434
9.390059,-6.804321,-0.383072,0.0,49.825676,24.039,349.0,NaN,5.544,11.0,23.9,0 / 0,65015,2020-03-17 13:53:01:934
2.868254,-13.153744,6.258444,0.0,49.825676,24.039,349.0,NaN,5.544,11.0,23.9,0 / 1,65515,2020-03-17 13:53:02:434
5.81791,-14.504074,-4.774038,0.0,49.825676,24.039,349.0,NaN,5.544,11.0,23.9,0 / 1,66015,2020-03-17 13:53:02:934
4.515465,-2.992752,-8.2169,0.0,49.825676,24.039,349.0,NaN,5.544,11.0,23.9,0 / 3,66516,2020-03-17 13:53:03:435
4.520253,-7.603985,-0.957681,0.0,49.825676,24.039,349.0,NaN,5.544,11.0,23.9,0 / 3,67015,2020-03-17 13:53:03:934
3.907337,-7.900865,-0.21069,0.0,49.825676,24.039,349.0,NaN,5.544,11.0,23.9,0 / 11,67515,2020-03-17 13:53:04:434
2.164359,-7.350199,-0.497994,0.0,49.825676,24.039,349.0,NaN,5.544,11.0,23.9,0 / 11,68015,2020-03-17 13:53:04:934
5.693412,-7.015011,2.379837,0.0,49.825676,24.039,349.0,NaN,5.544,11.0,23.9,0 / 16,68516,2020-03-17 13:53:05:435
3.289633,-19.52232,-3.696647,0.0,49.825676,24.039,349.0,NaN,5.544,11.0,23.9,0 / 16,69015,2020-03-17 13:53:05:934
7.465121,-14.60463,-4.314351,0.0,49.825676,24.039,349.0,NaN,5.544,11.0,23.9,0 / 17,69515,2020-03-17 13:53:06:434
5.262456,-5.214571,-12.243947,0.0,49.825676,24.039,349.0,NaN,5.544,11.0,23.9,0 / 17,70015,2020-03-17 13:53:06:934
10.7356,-9.753978,-4.553771,0.0,49.825676,24.039,349.0,NaN,5.544,11.0,23.9,0 / 18,70515,2020-03-17 13:53:07:434
-0.488417,-2.044648,2.82037,0.0,49.825676,24.039,349.0,NaN,5.544,11.0,23.9,0 / 18,71015,2020-03-17 13:53:07:934
1.795651,-6.200982,-3.160346,0.0,49.825676,24.039,349.0,NaN,5.544,11.0,23.9,0 / 19,71516,2020-03-17 13:53:08:435
2.403779,-14.949395,0.708684,0.0,49.825676,24.039,349.0,NaN,5.544,11.0,23.9,19 / 19,72015,2020-03-17 13:53:08:934
2.715025,-9.619903,-2.964022,0.0,49.825676,24.039,349.0,NaN,5.544,11.0,23.9,19 / 19,72515,2020-03-17 13:53:09:434
0.608127,-20.39381,-3.332729,0.0,49.825676,24.039,349.0,NaN,5.544,11.0,23.9,19 / 19,73015,2020-03-17 13:53:09:934
-21.839909,2.8491,-2.054225,0.0,49.825676,24.039,349.0,NaN,5.544,11.0,23.9,19 / 19,73515,2020-03-17 13:53:10:434
4.180277,-12.301409,-3.198653,0.0,49.825676,24.039,349.0,NaN,5.544,11.0,23.9,19 / 19,74015,2020-03-17 13:53:10:934
3.524265,-8.183381,-14.877569,0.0,49.825676,24.039,349.0,NaN,5.544,11.0,23.9,19 / 19,74515,2020-03-17 13:53:11:434
1.896208,-5.760449,2.355895,0.0,49.825676,24.039,349.0,NaN,5.544,11.0,23.9,19 / 19,75015,2020-03-17 13:53:11:934
2.13084,-5.238513,2.284068,0.0,49.825676,24.039,349.0,NaN,5.544,11.0,23.9,19 / 19,75515,2020-03-17 13:53:12:434
1.972822,-7.225701,0.488417,0.0,49.825676,24.039,349.0,NaN,5.544,11.0,23.9,19 / 19,76015,2020-03-17 13:53:12:934
2.480393,-5.549759,4.386178,0.0,49.825676,24.039,349.0,NaN,5.544,11.0,23.9,19 / 19,76515,2020-03-17 13:53:13:434
2.743755,-11.070788,-0.78051,0.0,49.825676,24.039,349.0,NaN,5.544,11.0,23.9,19 / 19,77015,2020-03-17 13:53:13:934
8.355765,-12.47858,-0.234632,0.0,49.825676,24.039,349.0,NaN,5.544,11.0,23.9,19 / 19,77515,2020-03-17 13:53:14:434
5.272033,-12.909535,-5.363012,0.0,49.825676,24.039,349.0,NaN,5.544,11.0,23.9,19 / 19,78016,2020-03-17 13:53:14:935
10.812215,-8.66701,-1.249773,0.0,49.825676,24.039,349.0,NaN,5.544,11.0,23.9,19 / 19,78515,2020-03-17 13:53:15:434
-2.269703,-4.357447,-1.053449,0.0,49.825676,24.039,349.0,NaN,5.544,11.0,23.9,19 / 19,79015,2020-03-17 13:53:15:934
7.038953,-6.167464,0.746991,0.0,49.825676,24.039,349.0,NaN,5.544,11.0,23.9,19 / 19,79515,2020-03-17 13:53:16:434
6.172252,-4.472368,1.101333,0.0,49.825676,24.039,349.0,NaN,5.544,11.0,23.9,19 / 19,80015,2020-03-17 13:53:16:934
5.889736,-5.774814,0.105345,0.0,49.825676,24.039,349.0,NaN,5.544,11.0,23.9,19 / 19,80515,2020-03-17 13:53:17:434
7.053318,-6.751649,2.997541,0.0,49.825676,24.039,349.0,NaN,5.544,11.0,23.9,19 / 19,81015,2020-03-17 13:53:17:934
5.386954,-23.894133,10.065224,0.0,49.825676,24.039,349.0,NaN,5.544,11.0,23.9,19 / 19,81515,2020-03-17 13:53:18:434
10.927136,-9.911995,-0.167594,0.0,49.825676,24.039,349.0,NaN,5.544,11.0,23.9,19 / 19,82015,2020-03-17 13:53:18:934
9.44752,-16.237476,-14.858416,0.0,49.825676,24.039,349.0,NaN,5.544,11.0,23.9,19 / 19,82516,2020-03-17 13:53:19:435
3.529053,-8.925584,-2.260126,0.0,49.825676,24.039,349.0,NaN,5.544,11.0,23.9,19 / 19,83015,2020-03-17 13:53:19:934
-3.347094,-2.499546,3.074155,0.0,49.825676,24.039,349.0,NaN,5.544,11.0,23.9,19 / 19,83515,2020-03-17 13:53:20:434
-0.11971,-6.493075,1.034295,0.0,49.825676,24.039,349.0,NaN,5.544,11.0,23.9,19 / 19,84015,2020-03-17 13:53:20:934
-3.074155,-3.040636,3.65834,0.0,49.825676,24.039,349.0,NaN,5.544,11.0,23.9,19 / 19,84515,2020-03-17 13:53:21:434
2.513912,-5.932832,-2.920926,0.0,49.825676,24.039,349.0,NaN,5.544,11.0,23.9,19 / 19,85015,2020-03-17 13:53:21:934
7.067683,-11.568783,-1.374272,0.0,49.825676,24.039,349.0,NaN,5.544,11.0,23.9,19 / 19,85516,2020-03-17 13:53:22:435
3.639187,3.380613,13.354857,0.0,49.825676,24.039,349.0,NaN,5.544,11.0,23.9,19 / 19,86015,2020-03-17 13:53:22:934
12.761095,-10.28549,-2.628833,0.0,49.825676,24.039,349.0,NaN,5.544,11.0,23.9,19 / 19,86515,2020-03-17 13:53:23:434
9.706094,-16.950949,-15.222335,0.0,49.825676,24.039,349.0,NaN,5.544,11.0,23.9,19 / 19,87015,2020-03-17 13:53:23:934
2.513912,-9.126697,-0.852336,0.0,49.825676,24.039,349.0,NaN,5.544,11.0,23.9,19 / 19,87515,2020-03-17 13:53:24:434
-2.106897,-4.247314,3.787627,0.0,49.825676,24.039,349.0,NaN,5.544,11.0,23.9,19 / 19,88016,2020-03-17 13:53:24:935
8.456321,-7.972691,-4.683058,0.0,49.825676,24.039,349.0,NaN,5.544,11.0,23.9,19 / 19,88516,2020-03-17 13:53:25:435
-2.987964,-3.050213,4.539407,0.0,49.825676,24.039,349.0,NaN,5.544,11.0,23.9,19 / 19,89015,2020-03-17 13:53:25:934
0.646435,-5.741296,-2.743755,0.0,49.825676,24.039,349.0,NaN,5.544,11.0,23.9,19 / 19,89515,2020-03-17 13:53:26:434
6.291962,-8.068459,-0.627281,0.0,49.825676,24.039,349.0,NaN,5.544,11.0,23.9,19 / 19,90015,2020-03-17 13:53:26:934
-1.182736,-22.907722,11.439496,0.0,49.825676,24.039,349.0,NaN,5.544,11.0,23.9,19 / 19,90515,2020-03-17 13:53:27:434
12.847286,-12.583924,-2.379836,0.0,49.825676,24.039,349.0,NaN,5.544,11.0,23.9,19 / 19,91016,2020-03-17 13:53:27:935
6.727707,-3.380613,-11.707646,0.0,49.825676,24.039,349.0,NaN,5.544,11.0,23.9,19 / 19,91516,2020-03-17 13:53:28:435
10.630256,-9.155427,3.849877,0.0,49.825676,24.039,349.0,NaN,5.544,11.0,23.9,19 / 19,92015,2020-03-17 13:53:28:934
-2.705448,-9.394848,-5.521029,0.0,49.825676,24.039,349.0,NaN,5.544,11.0,23.9,19 / 19,92515,2020-03-17 13:53:29:434
11.894394,-7.455544,-3.672705,0.0,49.825676,24.039,349.0,NaN,5.544,11.0,23.9,19 / 19,93015,2020-03-17 13:53:29:934
-1.781286,-1.742979,2.221819,0.0,49.825676,24.039,349.0,NaN,5.544,11.0,23.9,19 / 19,93515,2020-03-17 13:53:30:434
6.282386,-5.568913,1.757344,0.0,49.825676,24.039,349.0,NaN,5.544,11.0,23.9,19 / 19,94016,2020-03-17 13:53:30:935
8.255207,-5.161899,1.719037,0.0,49.825676,24.039,349.0,NaN,5.544,11.0,23.9,19 / 19,94515,2020-03-17 13:53:31:434
14.149732,-13.570335,5.664682,0.0,49.825676,24.039,349.0,NaN,5.544,11.0,23.9,19 / 19,95015,2020-03-17 13:53:31:934
1.154005,-16.160862,5.363012,0.0,49.825676,24.039,349.0,NaN,5.544,11.0,23.9,19 / 19,95515,2020-03-17 13:53:32:434
17.329231,-26.465506,-18.306067,0.0,49.825676,24.039,349.0,NaN,5.544,11.0,23.9,19 / 19,96015,2020-03-17 13:53:32:934
1.455675,-17.741035,4.683059,0.0,49.825676,24.039,349.0,NaN,5.544,11.0,23.9,19 / 19,96516,2020-03-17 13:53:33:435
17.84638,-20.915747,-13.776237,0.0,49.825676,24.039,349.0,NaN,5.544,11.0,23.9,19 / 19,97016,2020-03-17 13:53:33:935
6.904878,-9.188946,-0.986411,0.0,49.825676,24.039,349.0,NaN,5.544,11.0,23.9,19 / 19,97515,2020-03-17 13:53:34:434
3.404555,-7.307103,-13.038822,0.0,49.825676,24.039,349.0,NaN,5.544,11.0,23.9,19 / 19,98015,2020-03-17 13:53:34:934
5.137957,-5.813122,1.944092,0.0,49.825676,24.039,349.0,NaN,5.544,11.0,23.9,19 / 19,98515,2020-03-17 13:53:35:434
5.358224,-4.127603,3.667917,0.0,49.825676,24.039,349.0,NaN,5.544,11.0,23.9,19 / 19,99016,2020-03-17 13:53:35:935
4.587291,-6.995857,-18.488026,0.0,49.825676,24.039,349.0,NaN,5.544,11.0,23.9,19 / 19,99516,2020-03-17 13:53:36:435
1.340753,-21.62443,-3.08852,0.0,49.825676,24.039,349.0,NaN,5.544,11.0,23.9,19 / 19,100015,2020-03-17 13:53:36:934
5.066131,-6.607996,-2.284068,0.0,49.825676,24.039,349.0,NaN,5.544,11.0,23.9,19 / 19,100515,2020-03-17 13:53:37:434
2.126051,-17.027563,-3.069367,0.0,49.825676,24.039,349.0,NaN,5.544,11.0,23.9,19 / 19,101015,2020-03-17 13:53:37:934
-13.857639,11.319786,-6.598419,0.0,49.825676,24.039,349.0,NaN,5.544,11.0,23.9,19 / 19,101515,2020-03-17 13:53:38:434
9.983821,-10.998962,-3.064578,0.0,49.825676,24.039,349.0,NaN,5.544,11.0,23.9,19 / 19,102016,2020-03-17 13:53:38:935
3.596091,-5.961562,-5.133168,0.0,49.825676,24.039,349.0,NaN,5.544,11.0,23.9,19 / 19,102516,2020-03-17 13:53:39:435
6.220136,-7.508216,-0.296881,0.0,49.825676,24.039,349.0,NaN,5.544,11.0,23.9,19 / 19,103015,2020-03-17 13:53:39:934
-2.06859,-1.939303,3.792416,0.0,49.825676,24.039,349.0,NaN,5.544,11.0,23.9,19 / 19,103515,2020-03-17 13:53:40:434
0.895431,-5.602432,-2.595315,0.0,49.825676,24.039,349.0,NaN,5.544,11.0,23.9,19 / 19,104015,2020-03-17 13:53:40:934
-2.504335,-2.384625,2.987964,0.0,49.825676,24.039,349.0,NaN,5.544,11.0,23.9,19 / 19,104516,2020-03-17 13:53:41:435
0.354342,-6.636727,-1.321599,0.0,49.825676,24.039,349.0,NaN,5.544,11.0,23.9,19 / 19,105015,2020-03-17 13:53:41:934
4.314352,-7.953538,-1.584961,0.0,49.825676,24.039,349.0,NaN,5.544,11.0,23.9,19 / 19,105515,2020-03-17 13:53:42:434
-1.426944,-9.562442,4.515465,0.0,49.825676,24.039,349.0,NaN,5.544,11.0,23.9,19 / 19,106015,2020-03-17 13:53:42:934
9.969456,-11.750742,-5.013458,0.0,49.825676,24.039,349.0,NaN,5.544,11.0,23.9,19 / 19,106515,2020-03-17 13:53:43:434
0.502782,-3.375824,-6.74686,0.0,49.825676,24.039,349.0,NaN,5.544,11.0,23.9,19 / 19,107015,2020-03-17 13:53:43:934
11.056423,-7.139509,-4.204218,0.0,49.825676,24.039,349.0,NaN,5.544,11.0,23.9,19 / 19,107516,2020-03-17 13:53:44:435
-0.909797,-1.848324,2.427721,0.0,49.825676,24.039,349.0,NaN,5.544,11.0,23.9,19 / 19,108015,2020-03-17 13:53:44:934
5.410896,-6.248866,-0.09098,0.0,49.825676,24.039,349.0,NaN,5.544,11.0,23.9,19 / 19,108515,2020-03-17 13:53:45:434
-0.814029,-2.015918,2.346318,0.0,49.825676,24.039,349.0,NaN,5.544,11.0,23.9,19 / 19,109015,2020-03-17 13:53:45:934
5.884948,-6.23929,0.277727,0.0,49.825676,24.039,349.0,NaN,5.544,11.0,23.9,19 / 19,109515,2020-03-17 13:53:46:434
11.080365,-3.926491,-0.459687,0.0,49.825676,24.039,349.0,NaN,5.544,11.0,23.9,19 / 19,110016,2020-03-17 13:53:46:935
19.689915,-19.412188,7.206548,0.0,49.825676,24.039,349.0,NaN,5.544,11.0,23.9,19 / 19,110515,2020-03-17 13:53:47:434
1.546654,-14.245501,0.90022,0.0,49.825676,24.039,349.0,NaN,5.544,11.0,23.9,19 / 19,111015,2020-03-17 13:53:47:934
1.053449,-10.802638,-3.423708,0.0,49.825676,24.039,349.0,NaN,5.544,11.0,23.9,19 / 19,111515,2020-03-17 13:53:48:434
11.932701,-8.767567,-2.576161,0.0,49.825676,24.039,349.0,NaN,5.544,11.0,23.9,19 / 19,112015,2020-03-17 13:53:48:934
-0.033519,-2.39899,2.643199,0.0,49.825676,24.039,349.0,NaN,5.544,11.0,23.9,19 / 19,112516,2020-03-17 13:53:49:435
10.97502,-8.523358,-0.062249,0.0,49.825676,24.039,349.0,NaN,5.544,11.0,23.9,19 / 19,113015,2020-03-17 13:53:49:934
0.038307,-1.484405,0.565032,0.0,49.825676,24.039,349.0,NaN,5.544,11.0,23.9,19 / 19,113516,2020-03-17 13:53:50:435
4.845865,-7.038953,0.627281,0.0,49.825676,24.039,349.0,NaN,5.544,11.0,23.9,19 / 19,114015,2020-03-17 13:53:50:934
5.090073,-4.644751,2.810793,0.0,49.825676,24.039,349.0,NaN,5.544,11.0,23.9,19 / 19,114515,2020-03-17 13:53:51:434
8.322245,-12.53604,12.368446,0.0,49.825676,24.039,349.0,NaN,5.544,11.0,23.9,19 / 19,115015,2020-03-17 13:53:51:934
2.748544,-17.578228,4.505888,0.0,49.825676,24.039,349.0,NaN,5.544,11.0,23.9,19 / 19,115515,2020-03-17 13:53:52:434
10.189722,-14.255077,26.757599,0.0,49.825676,24.039,349.0,NaN,5.544,11.0,23.9,19 / 19,116016,2020-03-17 13:53:52:935
5.243302,-10.812215,-0.134075,0.0,49.825676,24.039,349.0,NaN,5.544,11.0,23.9,19 / 19,116516,2020-03-17 13:53:53:435
13.761871,-15.193604,34.294544,0.0,49.825676,24.039,349.0,NaN,5.544,11.0,23.9,19 / 19,117016,2020-03-17 13:53:53:935
4.156334,-12.411542,-6.210559,0.0,49.825676,24.039,349.0,NaN,5.544,11.0,23.9,19 / 19,117515,2020-03-17 13:53:54:434
3.165135,-20.580557,-20.757729,0.0,49.825676,24.039,349.0,NaN,5.544,11.0,23.9,19 / 19,118015,2020-03-17 13:53:54:934
3.007117,-7.896077,-1.278504,0.0,49.825676,24.039,349.0,NaN,5.544,11.0,23.9,19 / 19,118515,2020-03-17 13:53:55:434
-2.111686,-4.673482,3.308787,0.0,49.825676,24.039,349.0,NaN,5.544,11.0,23.9,19 / 19,119016,2020-03-17 13:53:55:935
1.335965,-6.809109,2.154782,0.0,49.825676,24.039,349.0,NaN,5.544,11.0,23.9,19 / 19,119515,2020-03-17 13:53:56:434
2.839523,-14.72434,-2.341529,0.0,49.825676,24.039,349.0,NaN,5.544,11.0,23.9,19 / 19,120015,2020-03-17 13:53:56:934
-4.065354,-12.382812,14.480132,0.0,49.825676,24.039,349.0,NaN,5.544,11.0,23.9,0 / 0,120516,2020-03-17 13:53:57:435
3.438074,-8.446744,-1.221043,0.0,49.825676,24.039,349.0,NaN,5.544,11.0,23.9,0 / 0,121015,2020-03-17 13:53:57:934
-2.106897,-3.648763,1.120486,0.0,49.825676,24.039,349.0,NaN,5.544,11.0,23.9,0 / 1,121515,2020-03-17 13:53:58:434
11.650186,-11.252748,-2.810793,0.0,49.825676,24.039,349.0,NaN,5.544,11.0,23.9,0 / 1,122015,2020-03-17 13:53:58:934
2.595315,-2.451662,-7.627927,0.0,49.825676,24.039,349.0,NaN,5.544,11.0,23.9,0 / 3,122515,2020-03-17 13:53:59:434
6.646304,-8.418014,-4.161122,0.0,49.825676,24.039,349.0,NaN,5.544,11.0,23.9,0 / 3,123015,2020-03-17 13:53:59:934
-2.355894,-1.47004,3.60088,0.0,49.825676,24.039,349.0,NaN,5.544,11.0,23.9,0 / 4,123515,2020-03-17 13:54:00:434
4.132392,-5.592855,2.466028,0.0,49.825676,24.039,349.0,NaN,5.544,11.0,23.9,0 / 4,124015,2020-03-17 13:54:00:934
9.356541,-4.027047,0.191536,0.0,49.825676,24.039,349.0,NaN,5.544,11.0,23.9,0 / 11,124516,2020-03-17 13:54:01:435
6.818687,-6.722918,2.547431,0.0,49.825676,24.039,349.0,NaN,5.544,11.0,23.9,0 / 11,125015,2020-03-17 13:54:01:934
8.073248,-4.774038,2.561796,0.0,49.825676,24.039,349.0,NaN,5.544,11.0,23.9,0 / 15,125515,2020-03-17 13:54:02:434
16.07467,-11.880029,-8.777143,0.0,49.825676,24.039,349.0,NaN,5.544,11.0,23.9,15 / 15,126015,2020-03-17 13:54:02:934
2.710236,-15.433024,6.397307,0.0,49.825676,24.039,349.0,NaN,5.544,11.0,23.9,15 / 15,126515,2020-03-17 13:54:03:434
17.659632,-23.20939,-15.289372,0.0,49.825676,24.039,349.0,NaN,5.544,11.0,23.9,15 / 15,127016,2020-03-17 13:54:03:935
8.916007,-9.931149,1.49877,0.0,49.825676,24.039,349.0,NaN,5.544,11.0,23.9,15 / 15,127515,2020-03-17 13:54:04:434
4.285621,-13.479356,-12.813767,0.0,49.825676,24.039,349.0,NaN,5.544,11.0,23.9,15 / 15,128015,2020-03-17 13:54:04:934
3.816358,-6.157887,-0.234632,0.0,49.825676,24.039,349.0,NaN,5.544,11.0,23.9,15 / 15,128515,2020-03-17 13:54:05:434
3.213019,-17.075447,-15.136143,0.0,49.825676,24.039,349.0,NaN,5.544,11.0,23.9,15 / 15,129015,2020-03-17 13:54:05:934
3.706224,-6.646304,0.665588,0.0,49.825676,24.039,349.0,NaN,5.544,11.0,23.9,15 / 15,129515,2020-03-17 13:54:06:434
3.500323,-4.213795,3.294422,0.0,49.825676,24.039,349.0,NaN,5.544,11.0,23.9,15 / 15,130016,2020-03-17 13:54:06:935
4.989517,-7.513005,-12.890382,0.0,49.825676,24.039,349.0,NaN,5.544,11.0,23.9,15 / 15,130515,2020-03-17 13:54:07:434
-0.92895,-20.221428,0.148441,0.0,49.825676,24.039,349.0,NaN,5.544,11.0,23.9,15 / 15,131015,2020-03-17 13:54:07:934
-12.756307,10.127473,9.227253,0.0,49.825676,24.039,349.0,NaN,5.544,11.0,23.9,15 / 15,131515,2020-03-17 13:54:08:434
5.420473,-13.819332,-5.425261,0.0,49.825676,24.039,349.0,NaN,5.544,11.0,23.9,15 / 15,132015,2020-03-17 13:54:08:934
6.406884,-12.057199,-11.540052,0.0,49.825676,24.039,349.0,NaN,5.544,11.0,23.9,15 / 15,132515,2020-03-17 13:54:09:434
8.571242,-11.003751,-1.067814,0.0,49.825676,24.039,349.0,NaN,5.544,11.0,23.9,15 / 15,133016,2020-03-17 13:54:09:935
5.315128,-5.784391,-9.112331,0.0,49.825676,24.039,349.0,NaN,5.544,11.0,23.9,15 / 15,133515,2020-03-17 13:54:10:434
-5.085284,-8.892065,3.730166,0.0,49.825676,24.039,349.0,NaN,5.544,11.0,23.9,15 / 15,134015,2020-03-17 13:54:10:934
1.278504,-7.034164,0.866701,0.0,49.825676,24.039,349.0,NaN,5.544,11.0,23.9,15 / 15,134515,2020-03-17 13:54:11:434
6.287174,-8.508993,0.138864,0.0,49.825676,24.039,349.0,NaN,5.544,11.0,23.9,15 / 15,135015,2020-03-17 13:54:11:934
3.639187,-15.121778,6.44998,0.0,49.825676,24.039,349.0,NaN,5.544,11.0,23.9,15 / 15,135516,2020-03-17 13:54:12:435
9.342175,-24.856602,-8.327033,0.0,49.825676,24.039,349.0,NaN,5.544,11.0,23.9,15 / 15,136015,2020-03-17 13:54:12:934
5.386954,-11.631032,0.45011,0.0,49.825676,24.039,349.0,NaN,5.544,11.0,23.9,15 / 15,136515,2020-03-17 13:54:13:434
16.543934,-22.64436,-3.648763,0.0,49.825676,24.039,349.0,NaN,5.544,11.0,23.9,15 / 15,137015,2020-03-17 13:54:13:934
4.735731,-11.137826,-2.470816,0.0,49.825676,24.039,349.0,NaN,5.544,11.0,23.9,15 / 15,137515,2020-03-17 13:54:14:434
4.338294,-12.789825,-15.227123,0.0,49.825676,24.039,349.0,NaN,5.544,11.0,23.9,15 / 15,138016,2020-03-17 13:54:14:935
3.897761,-6.009446,2.260126,0.0,49.825676,24.039,349.0,NaN,5.544,11.0,23.9,15 / 15,138515,2020-03-17 13:54:15:434
2.920926,-3.940856,3.730166,0.0,49.825676,24.039,349.0,NaN,5.544,11.0,23.9,15 / 15,139015,2020-03-17 13:54:15:934
5.765238,-7.374141,-0.124498,0.0,49.825676,24.039,349.0,NaN,5.544,11.0,23.9,15 / 15,139515,2020-03-17 13:54:16:434
1.369483,-19.76653,-1.522712,0.0,49.825676,24.039,349.0,NaN,5.544,11.0,23.9,15 / 15,140016,2020-03-17 13:54:16:935
-13.800179,3.998317,-2.212242,0.0,49.825676,24.039,349.0,NaN,5.544,11.0,23.9,0 / 0,140515,2020-03-17 13:54:17:434
2.944868,-12.449849,0.80924,0.0,49.825676,24.039,349.0,NaN,5.544,11.0,23.9,0 / 0,141015,2020-03-17 13:54:17:934
2.365471,-7.354987,9.461885,0.0,49.825676,24.039,349.0,NaN,5.544,11.0,23.9,0 / 0,141516,2020-03-17 13:54:18:435
11.180922,-12.818556,-4.419696,0.0,49.825676,24.039,349.0,NaN,5.544,11.0,23.9,0 / 0,142015,2020-03-17 13:54:18:934
3.308787,-4.596867,-6.497863,0.0,49.825676,24.039,349.0,NaN,5.544,11.0,23.9,0 / 0,142515,2020-03-17 13:54:19:434
7.359776,-9.696517,-3.711012,0.0,49.825676,24.039,349.0,NaN,5.544,11.0,23.9,0 / 0,143015,2020-03-17 13:54:19:934
-1.335964,-1.944092,3.428497,0.0,49.825676,24.039,349.0,NaN,5.544,11.0,23.9,0 / 3,143516,2020-03-17 13:54:20:435
3.481169,-5.746084,-1.115698,0.0,49.825676,24.039,349.0,NaN,5.544,11.0,23.9,0 / 4,144015,2020-03-17 13:54:20:934
9.232041,-6.502651,-0.301669,0.0,49.825676,24.039,349.0,NaN,5.544,11.0,23.9,0 / 4,144515,2020-03-17 13:54:21:434
5.118803,-6.191406,0.766145,0.0,49.825676,24.039,349.0,NaN,5.544,11.0,23.9,0 / 4,145015,2020-03-17 13:54:21:934
7.642292,-5.549759,0.646435,0.0,49.825676,24.039,349.0,NaN,5.544,11.0,23.9,0 / 4,145515,2020-03-17 13:54:22:434
20.293253,-12.607866,9.002198,0.0,49.825676,24.039,349.0,NaN,5.544,11.0,23.9,13 / 13,146016,2020-03-17 13:54:22:935
2.719813,-13.057976,5.683835,0.0,49.825676,24.039,349.0,NaN,5.544,11.0,23.9,13 / 13,146516,2020-03-17 13:54:23:435
11.434708,-21.854273,-16.812084,0.0,49.826828,24.042114,333.0,NaN,4.86,16.5,114.0,16 / 16,147015,2020-03-17 13:54:23:934
8.293515,-10.524911,-2.020706,0.0,49.826828,24.042114,333.0,NaN,4.86,16.5,114.0,16 / 16,147515,2020-03-17 13:54:24:434
4.639963,-3.371036,-8.887277,0.0,49.826828,24.042114,333.0,NaN,4.86,16.5,114.0,16 / 16,148016,2020-03-17 13:54:24:935
5.655105,-6.555324,1.326388,0.0,49.826828,24.042114,333.0,NaN,4.86,16.5,114.0,16 / 16,148515,2020-03-17 13:54:25:434
5.123592,-5.521029,-13.752295,0.0,49.826828,24.042114,333.0,NaN,4.86,16.5,114.0,16 / 16,149015,2020-03-17 13:54:25:934
5.707777,-5.57849,1.460463,0.0,49.826828,24.042114,333.0,NaN,4.86,16.5,114.0,16 / 16,149515,2020-03-17 13:54:26:434
2.049437,-4.582502,3.725378,0.0,49.826828,24.042114,333.0,NaN,4.86,16.5,114.0,16 / 16,150015,2020-03-17 13:54:26:934
4.807557,-8.355764,-0.584185,0.0,49.826828,24.042114,333.0,NaN,4.86,16.5,114.0,16 / 16,150515,2020-03-17 13:54:27:434
3.332729,-20.700268,-2.628833,0.0,49.826828,24.042114,333.0,NaN,4.86,16.5,114.0,16 / 16,151015,2020-03-17 13:54:27:934
-14.250289,0.718261,5.736508,0.0,49.826828,24.042114,333.0,NaN,4.86,16.5,114.0,16 / 16,151516,2020-03-17 13:54:28:435
1.580173,-12.401965,-3.715801,0.0,49.826828,24.042114,333.0,NaN,4.86,16.5,114.0,16 / 16,152015,2020-03-17 13:54:28:934
7.129933,-18.617311,-15.418659,0.0,49.826828,24.042114,333.0,NaN,4.86,16.5,114.0,16 / 16,152515,2020-03-17 13:54:29:434
1.532289,-13.852851,-8.504205,0.0,49.826828,24.042114,333.0,NaN,4.86,16.5,114.0,16 / 16,153015,2020-03-17 13:54:29:934
7.436391,-22.117636,-16.424223,0.0,49.826828,24.042114,333.0,NaN,4.86,16.5,114.0,16 / 16,153515,2020-03-17 13:54:30:434
2.547431,-10.151415,-1.900996,0.0,49.826828,24.042114,333.0,NaN,4.86,16.5,114.0,16 / 16,154016,2020-03-17 13:54:30:935
-1.819593,-5.00867,3.830723,0.0,49.826828,24.042114,333.0,NaN,4.86,16.5,114.0,16 / 16,154516,2020-03-17 13:54:31:435
2.217031,-6.200982,2.705448,0.0,49.826828,24.042114,333.0,NaN,4.86,16.5,114.0,16 / 16,155015,2020-03-17 13:54:31:934
6.009446,-7.61835,-0.363919,0.0,49.826828,24.042114,333.0,NaN,4.86,16.5,114.0,16 / 16,155515,2020-03-17 13:54:32:434
-0.043096,-17.041927,6.636728,0.0,49.826828,24.042114,333.0,NaN,4.86,16.5,114.0,16 / 16,156015,2020-03-17 13:54:32:934
7.316681,-13.761871,-1.656788,0.0,49.826828,24.042114,333.0,NaN,4.86,16.5,114.0,16 / 16,156516,2020-03-17 13:54:33:435
16.788143,-17.908628,7.953538,0.0,49.826828,24.042114,333.0,NaN,4.86,16.5,114.0,16 / 16,157016,2020-03-17 13:54:33:935
7.445967,-12.344504,-3.131616,0.0,49.826828,24.042114,333.0,NaN,4.86,16.5,114.0,16 / 16,157515,2020-03-17 13:54:34:434
-1.23062,-7.517793,-6.612785,0.0,49.826828,24.042114,333.0,NaN,4.86,16.5,114.0,16 / 16,158015,2020-03-17 13:54:34:934
10.668563,-8.03494,-8.614338,0.0,49.826828,24.042114,333.0,NaN,4.86,16.5,114.0,16 / 16,158515,2020-03-17 13:54:35:434
-1.240196,-2.102109,1.292869,0.0,49.826828,24.042114,333.0,NaN,4.86,16.5,114.0,16 / 16,159015,2020-03-17 13:54:35:934
5.928044,-6.550535,-0.459687,0.0,49.826828,24.042114,333.0,NaN,4.86,16.5,114.0,16 / 16,159515,2020-03-17 13:54:36:434
8.604761,-4.568136,2.422932,0.0,49.826828,24.042114,333.0,NaN,4.86,16.5,114.0,16 / 16,160015,2020-03-17 13:54:36:934
15.969325,-20.508732,11.3964,0.0,49.826828,24.042114,333.0,NaN,4.86,16.5,114.0,16 / 16,160515,2020-03-17 13:54:37:434
4.884172,-4.88896,3.021483,0.0,49.826828,24.042114,333.0,NaN,4.86,16.5,114.0,16 / 16,161015,2020-03-17 13:54:37:934
4.568137,-8.350976,-1.479617,0.0,49.826828,24.042114,333.0,NaN,4.86,16.5,114.0,16 / 16,161515,2020-03-17 13:54:38:434
0.995988,-17.415422,1.479617,0.0,49.826828,24.042114,333.0,NaN,4.86,16.5,114.0,16 / 16,162015,2020-03-17 13:54:38:934
10.362105,-19.053057,4.644751,0.0,49.826828,24.042114,333.0,NaN,4.86,16.5,114.0,16 / 16,162516,2020-03-17 13:54:39:435
10.620679,-8.681376,0.411803,0.0,49.826828,24.042114,333.0,NaN,4.86,16.5,114.0,16 / 16,163015,2020-03-17 13:54:39:934
2.839523,-17.664421,-20.647596,0.0,49.826828,24.042114,333.0,NaN,4.86,16.5,114.0,16 / 16,163515,2020-03-17 13:54:40:434
4.994305,-6.449979,1.201889,0.0,49.826828,24.042114,333.0,NaN,4.86,16.5,114.0,16 / 16,164015,2020-03-17 13:54:40:934
1.091756,-6.114791,3.955221,0.0,49.826828,24.042114,333.0,NaN,4.86,16.5,114.0,16 / 16,164516,2020-03-17 13:54:41:435
2.647987,-5.861006,1.244985,0.0,49.826828,24.042114,333.0,NaN,4.86,16.5,114.0,16 / 16,165015,2020-03-17 13:54:41:934
-0.703895,-4.462792,4.630386,0.0,49.826828,24.042114,333.0,NaN,4.86,16.5,114.0,16 / 16,165515,2020-03-17 13:54:42:434
7.40766,-7.211335,-23.894133,0.0,49.826828,24.042114,333.0,NaN,4.86,16.5,114.0,16 / 16,166016,2020-03-17 13:54:42:935
0.612916,-21.399374,-1.015141,0.0,49.826828,24.042114,333.0,NaN,4.86,16.5,114.0,16 / 16,166515,2020-03-17 13:54:43:434
-11.03727,7.335834,10.43872,0.0,49.826828,24.042114,333.0,NaN,4.86,16.5,114.0,16 / 16,167015,2020-03-17 13:54:43:934
7.316681,-13.718776,-5.880159,0.0,49.826828,24.042114,333.0,NaN,4.86,16.5,114.0,16 / 16,167515,2020-03-17 13:54:44:434
0.890643,-9.227253,-6.976703,0.0,49.826828,24.042114,333.0,NaN,4.86,16.5,114.0,16 / 16,168016,2020-03-17 13:54:44:935
5.559336,-7.829039,-1.029507,0.0,49.826828,24.042114,333.0,NaN,4.86,16.5,114.0,16 / 16,168515,2020-03-17 13:54:45:434
7.627927,-17.209522,-17.223886,0.0,49.826828,24.042114,333.0,NaN,4.86,16.5,114.0,16 / 16,169015,2020-03-17 13:54:45:934
3.936068,-6.742072,0.110133,0.0,49.826828,24.042114,333.0,NaN,4.86,16.5,114.0,16 / 16,169516,2020-03-17 13:54:46:435
9.32781,-5.932832,1.608904,0.0,49.826828,24.042114,333.0,NaN,4.86,16.5,114.0,16 / 16,170015,2020-03-17 13:54:46:934
9.797073,-16.52478,-1.149217,0.0,49.826828,24.042114,333.0,NaN,4.86,16.5,114.0,16 / 16,170515,2020-03-17 13:54:47:434
12.425907,-9.107543,-2.901772,0.0,49.826828,24.042114,333.0,NaN,4.86,16.5,114.0,16 / 16,171015,2020-03-17 13:54:47:934
9.610326,-10.860099,-16.49126,0.0,49.826828,24.042114,333.0,NaN,4.86,16.5,114.0,16 / 16,171516,2020-03-17 13:54:48:435
2.351106,-10.802638,-1.814805,0.0,49.826828,24.042114,333.0,NaN,4.86,16.5,114.0,16 / 16,172015,2020-03-17 13:54:48:934
-3.323152,-3.423708,4.194642,0.0,49.826828,24.042114,333.0,NaN,4.86,16.5,114.0,16 / 16,172515,2020-03-17 13:54:49:434
-0.225055,-5.190629,-2.628833,0.0,49.826828,24.042114,333.0,NaN,4.86,16.5,114.0,16 / 16,173016,2020-03-17 13:54:49:935
-2.705448,-2.408567,4.304775,0.0,49.826828,24.042114,333.0,NaN,4.86,16.5,114.0,16 / 16,173515,2020-03-17 13:54:50:434
5.650316,-5.631162,-1.82917,0.0,49.826828,24.042114,333.0,NaN,4.86,16.5,114.0,16 / 16,174015,2020-03-17 13:54:50:934
10.376471,-5.382165,2.145205,0.0,49.826828,24.042114,333.0,NaN,4.86,16.5,114.0,16 / 16,174515,2020-03-17 13:54:51:434
22.414516,-27.236439,15.887922,0.0,49.826828,24.042114,333.0,NaN,4.86,16.5,114.0,16 / 16,175016,2020-03-17 13:54:51:935
0.995988,-15.883134,-3.32794,0.0,49.826828,24.042114,333.0,NaN,4.86,16.5,114.0,16 / 16,175515,2020-03-17 13:54:52:434
5.3678,-6.861782,-9.088389,0.0,49.826828,24.042114,333.0,NaN,4.86,16.5,114.0,16 / 16,176015,2020-03-17 13:54:52:934
4.386178,-6.301539,-0.411803,0.0,49.826828,24.042114,333.0,NaN,4.86,16.5,114.0,16 / 16,176515,2020-03-17 13:54:53:434
2.394202,-7.000645,2.102109,0.0,49.826828,24.042114,333.0,NaN,4.86,16.5,114.0,16 / 16,177015,2020-03-17 13:54:53:934
12.167333,-10.845734,-9.323022,0.0,49.826828,24.042114,333.0,NaN,4.86,16.5,114.0,16 / 16,177515,2020-03-17 13:54:54:434
8.671799,-7.335834,1.771709,0.0,49.826828,24.042114,333.0,NaN,4.86,16.5,114.0,16 / 16,178016,2020-03-17 13:54:54:935
4.702213,-21.159954,8.619126,0.0,49.826828,24.042114,333.0,NaN,4.86,16.5,114.0,16 / 16,178515,2020-03-17 13:54:55:434
11.089942,-9.255983,0.881066,0.0,49.826828,24.042114,333.0,NaN,4.86,16.5,114.0,16 / 16,179015,2020-03-17 13:54:55:934
5.516241,-10.520123,-17.697939,0.0,49.826828,24.042114,333.0,NaN,4.86,16.5,114.0,16 / 16,179515,2020-03-17 13:54:56:434
1.182736,-7.972691,-1.604115,0.0,49.826828,24.042114,333.0,NaN,4.86,16.5,114.0,16 / 16,180016,2020-03-17 13:54:56:935
1.575385,-4.879383,2.600103,0.0,49.826828,24.042114,333.0,NaN,4.86,16.5,114.0,16 / 16,180515,2020-03-17 13:54:57:434
13.532028,-16.031574,-0.325611,0.0,49.826828,24.042114,333.0,NaN,4.86,16.5,114.0,16 / 16,181015,2020-03-17 13:54:57:934
2.485181,-19.819202,0.076614,0.0,49.826828,24.042114,333.0,NaN,4.86,16.5,114.0,16 / 16,181515,2020-03-17 13:54:58:434
1.714248,-5.813122,3.667917,0.0,49.826828,24.042114,333.0,NaN,4.86,16.5,114.0,16 / 16,182016,2020-03-17 13:54:58:935
3.797204,-13.263878,-1.766921,0.0,49.826828,24.042114,333.0,NaN,4.86,16.5,114.0,16 / 16,182515,2020-03-17 13:54:59:434
-8.911219,-2.456451,-10.769119,0.0,49.826828,24.042114,333.0,NaN,4.86,16.5,114.0,16 / 16,183015,2020-03-17 13:54:59:934
4.405331,-12.770672,-4.323928,0.0,49.826828,24.042114,333.0,NaN,4.86,16.5,114.0,16 / 16,183516,2020-03-17 13:55:00:435
3.466804,-15.045163,-15.437813,0.0,49.826828,24.042114,333.0,NaN,4.86,16.5,114.0,16 / 16,184015,2020-03-17 13:55:00:934
2.327164,-7.182605,0.086191,0.0,49.826828,24.042114,333.0,NaN,4.86,16.5,114.0,16 / 16,184516,2020-03-17 13:55:01:435
-0.656011,-4.146757,4.118027,0.0,49.826828,24.042114,333.0,NaN,4.86,16.5,114.0,16 / 16,185015,2020-03-17 13:55:01:934
2.82037,-8.604761,-0.167594,0.0,49.826828,24.042114,333.0,NaN,4.86,16.5,114.0,16 / 16,185515,2020-03-17 13:55:02:434
-1.039083,-5.621585,3.667917,0.0,49.826828,24.042114,333.0,NaN,4.86,16.5,114.0,16 / 16,186015,2020-03-17 13:55:02:934
8.039729,-9.514558,-0.483629,0.0,49.826828,24.042114,333.0,NaN,4.86,16.5,114.0,16 / 16,186516,2020-03-17 13:55:03:435
1.13964,-21.83512,-4.031835,0.0,49.826828,24.042114,333.0,NaN,4.86,16.5,114.0,16 / 16,187015,2020-03-17 13:55:03:934
2.877831,-18.033127,14.920665,0.0,49.826828,24.042114,333.0,NaN,4.86,16.5,114.0,16 / 16,187515,2020-03-17 13:55:04:434
3.155558,-12.129025,-3.916914,0.0,49.826828,24.042114,333.0,NaN,4.86,16.5,114.0,16 / 16,188015,2020-03-17 13:55:04:934
4.936844,-22.18946,-20.30283,0.0,49.826828,24.042114,333.0,NaN,4.86,16.5,114.0,16 / 16,188515,2020-03-17 13:55:05:434
2.547431,-8.106766,-0.565032,0.0,49.826828,24.042114,333.0,NaN,4.86,16.5,114.0,16 / 16,189015,2020-03-17 13:55:05:934
-0.914585,-3.509899,2.710236,0.0,49.826828,24.042114,333.0,NaN,4.86,16.5,114.0,16 / 16,189515,2020-03-17 13:55:06:434
3.251326,-6.569689,1.005565,0.0,49.826828,24.042114,333.0,NaN,4.86,16.5,114.0,16 / 16,190015,2020-03-17 13:55:06:934
0.742203,-4.410119,3.878607,0.0,49.826828,24.042114,333.0,NaN,4.86,16.5,114.0,16 / 16,190516,2020-03-17 13:55:07:435
3.677494,-7.996633,2.063802,0.0,49.826828,24.042114,333.0,NaN,4.86,16.5,114.0,16 / 16,191015,2020-03-17 13:55:07:934
13.306973,-9.902418,-1.513135,0.0,49.826828,24.042114,333.0,NaN,4.86,16.5,114.0,16 / 16,191515,2020-03-17 13:55:08:434
5.061342,-4.429273,-7.201759,0.0,49.826828,24.042114,333.0,NaN,4.86,16.5,114.0,16 / 16,192015,2020-03-17 13:55:08:934
5.334282,-9.32781,-1.077391,0.0,49.826828,24.042114,333.0,NaN,4.86,16.5,114.0,16 / 16,192515,2020-03-17 13:55:09:434
-1.101333,-5.27682,2.456451,0.0,49.826828,24.042114,333.0,NaN,4.86,16.5,114.0,16 / 16,193015,2020-03-17 13:55:09:934
6.909666,-6.378153,-1.292869,0.0,49.826828,24.042114,333.0,NaN,4.86,16.5,114.0,16 / 16,193515,2020-03-17 13:55:10:434
-1.412579,-5.63595,2.959233,0.0,49.826828,24.042114,333.0,NaN,4.86,16.5,114.0,16 / 16,194016,2020-03-17 13:55:10:935
0.90022,-6.459556,-0.976834,0.0,49.826828,24.042114,333.0,NaN,4.86,16.5,114.0,16 / 16,194515,2020-03-17 13:55:11:434
6.416461,-7.939172,-2.375048,0.0,49.826828,24.042114,333.0,NaN,4.86,16.5,114.0,16 / 16,195015,2020-03-17 13:55:11:934
-0.972046,-8.987833,3.993528,0.0,49.826828,24.042114,333.0,NaN,4.86,16.5,114.0,16 / 16,195516,2020-03-17 13:55:12:435
7.876924,-12.713211,-0.306458,0.0,49.826828,24.042114,333.0,NaN,4.86,16.5,114.0,16 / 16,196015,2020-03-17 13:55:12:934
-0.177171,-24.641125,-13.488933,0.0,49.826828,24.042114,333.0,NaN,4.86,16.5,114.0,16 / 16,196515,2020-03-17 13:55:13:434
9.768343,-8.010998,-5.3678,0.0,49.826828,24.042114,333.0,NaN,4.86,16.5,114.0,16 / 16,197015,2020-03-17 13:55:13:934
-0.766144,-2.782062,0.282516,0.0,49.826828,24.042114,333.0,NaN,4.86,16.5,114.0,16 / 16,197515,2020-03-17 13:55:14:434
2.379837,-5.430049,0.790087,0.0,49.826828,24.042114,333.0,NaN,4.86,16.5,114.0,16 / 16,198015,2020-03-17 13:55:14:934
10.994174,-4.912902,-0.411803,0.0,49.826828,24.042114,333.0,NaN,4.86,16.5,114.0,16 / 16,198516,2020-03-17 13:55:15:435
1.848324,-19.484013,8.082825,0.0,49.826828,24.042114,333.0,NaN,4.86,16.5,114.0,16 / 16,199015,2020-03-17 13:55:15:934
11.492168,-6.066907,0.981623,0.0,49.826828,24.042114,333.0,NaN,4.86,16.5,114.0,16 / 16,199515,2020-03-17 13:55:16:434
17.152061,-10.477027,-10.433931,0.0,49.826828,24.042114,333.0,NaN,4.86,16.5,114.0,16 / 16,200015,2020-03-17 13:55:16:934
1.23062,-17.367538,-5.190629,0.0,49.826828,24.042114,333.0,NaN,4.86,16.5,114.0,16 / 16,200515,2020-03-17 13:55:17:434
7.608773,-26.015396,-14.413095,0.0,49.826828,24.042114,333.0,NaN,4.86,16.5,114.0,16 / 16,201015,2020-03-17 13:55:17:934
8.576031,-10.448297,0.957681,0.0,49.826828,24.042114,333.0,NaN,4.86,16.5,114.0,16 / 16,201515,2020-03-17 13:55:18:434
0.497994,-2.595315,-0.215478,0.0,49.826828,24.042114,333.0,NaN,4.86,16.5,114.0,16 / 16,202015,2020-03-17 13:55:18:934
7.196971,-0.100556,0.871489,0.0,49.826828,24.042114,333.0,NaN,4.86,16.5,114.0,16 / 16,202515,2020-03-17 13:55:19:434
3.280056,-5.018246,-0.646434,0.0,49.826828,24.042114,333.0,NaN,4.86,16.5,114.0,16 / 16,203015,2020-03-17 13:55:19:934
10.931925,-5.430049,5.631162,8.0,49.826828,24.042114,333.0,NaN,4.86,16.5,114.0,16 / 16,203515,2020-03-17 13:55:20:434
7.637504,-6.885724,3.696648,8.0,49.826828,24.042114,333.0,NaN,4.86,16.5,114.0,16 / 16,204016,2020-03-17 13:55:20:935
12.440272,-2.169147,4.587291,8.0,49.826828,24.042114,333.0,NaN,4.86,16.5,114.0,16 / 16,204515,2020-03-17 13:55:21:434
8.485051,-5.549759,5.319916,8.0,49.826828,24.042114,333.0,NaN,4.86,16.5,114.0,16 / 16,205015,2020-03-17 13:55:21:934
17.48725,-3.438074,2.987964,0.0,49.826828,24.042114,333.0,NaN,4.86,16.5,114.0,16 / 16,205515,2020-03-17 13:55:22:434
4.726155,-5.683835,-0.804452,8.0,49.826828,24.042114,333.0,NaN,4.86,16.5,114.0,16 / 16,206015,2020-03-17 13:55:22:934
4.64954,-2.140416,-0.105345,8.0,49.826828,24.042114,333.0,NaN,4.86,16.5,114.0,16 / 16,206515,2020-03-17 13:55:23:434
6.804322,-3.040636,0.938527,8.0,49.826828,24.042114,333.0,NaN,4.86,16.5,114.0,16 / 16,207016,2020-03-17 13:55:23:935
14.144943,0.162806,-0.948104,8.0,49.826828,24.042114,333.0,NaN,4.86,16.5,114.0,16 / 16,207515,2020-03-17 13:55:24:434
12.717999,-8.75799,1.604115,8.0,49.826828,24.042114,333.0,NaN,4.86,16.5,114.0,16 / 16,208015,2020-03-17 13:55:24:934
15.629349,-6.291962,-0.521936,8.0,49.826828,24.042114,333.0,NaN,4.86,16.5,114.0,16 / 16,208515,2020-03-17 13:55:25:434
8.99741,-4.673482,4.55856,8.0,49.826828,24.042114,333.0,NaN,4.86,16.5,114.0,16 / 16,209016,2020-03-17 13:55:25:935
16.534357,-4.82671,-7.038953,8.0,49.826828,24.042114,333.0,NaN,4.86,16.5,114.0,16 / 16,209515,2020-03-17 13:55:26:434
14.049175,-9.169792,-0.914585,8.0,49.826828,24.042114,333.0,NaN,4.86,16.5,114.0,16 / 16,210015,2020-03-17 13:55:26:934
1.82917,-8.805874,0.952892,8.0,49.826828,24.042114,333.0,NaN,4.86,16.5,114.0,16 / 16,210516,2020-03-17 13:55:27:435
21.753717,-2.54743,-2.844312,8.0,49.826828,24.042114,333.0,NaN,4.86,16.5,114.0,16 / 16,211015,2020-03-17 13:55:27:934
7.196971,-8.920795,-0.316035,8.0,49.826828,24.042114,333.0,NaN,4.86,16.5,114.0,16 / 16,211515,2020-03-17 13:55:28:434
9.749189,-4.61602,1.594538,8.0,49.826828,24.042114,333.0,NaN,4.86,16.5,114.0,16 / 16,212015,2020-03-17 13:55:28:934
4.587291,-6.397307,-0.627281,8.0,49.826828,24.042114,333.0,NaN,4.86,16.5,114.0,16 / 16,212515,2020-03-17 13:55:29:434
8.576031,-4.074931,1.168371,8.0,49.826828,24.042114,333.0,NaN,4.86,16.5,114.0,0 / 0,213016,2020-03-17 13:55:29:935
5.018247,-3.950433,-1.613692,8.0,49.826828,24.042114,333.0,NaN,4.86,16.5,114.0,0 / 2,213515,2020-03-17 13:55:30:434
7.086837,0.430956,-5.137956,0.0,49.826828,24.042114,333.0,NaN,4.86,16.5,114.0,0 / 2,214015,2020-03-17 13:55:30:934
7.038953,-3.567361,-0.502782,8.0,49.826828,24.042114,333.0,NaN,4.86,16.5,114.0,10 / 10,214515,2020-03-17 13:55:31:434
16.141708,-6.828263,-1.733402,8.0,49.826828,24.042114,333.0,NaN,4.86,16.5,114.0,10 / 10,215015,2020-03-17 13:55:31:934
12.464214,-6.622362,1.04866,8.0,49.826828,24.042114,333.0,NaN,4.86,16.5,114.0,18 / 19,215515,2020-03-17 13:55:32:434
4.582502,-8.585608,3.62961,8.0,49.826828,24.042114,333.0,NaN,4.86,16.5,114.0,18 / 19,216016,2020-03-17 13:55:32:935
15.926229,-3.078943,2.456451,8.0,49.82692,24.043451,358.0,NaN,1.44,8.0,29.1,20 / 21,216515,2020-03-17 13:55:33:434
10.563218,-11.525687,2.116475,8.0,49.82692,24.043451,358.0,NaN,1.44,8.0,29.1,20 / 21,217015,2020-03-17 13:55:33:934
20.144814,1.56102,-4.386177,8.0,49.82692,24.043451,358.0,NaN,1.44,8.0,29.1,20 / 21,217516,2020-03-17 13:55:34:435
7.264008,-8.087613,-1.642422,8.0,49.82692,24.043451,358.0,NaN,1.44,8.0,29.1,20 / 21,218015,2020-03-17 13:55:34:934
9.246407,-2.260126,0.373495,8.0,49.82692,24.043451,358.0,NaN,1.44,8.0,29.1,20 / 21,218515,2020-03-17 13:55:35:434
5.573702,-4.362235,-0.861913,8.0,49.82692,24.043451,358.0,NaN,1.44,8.0,29.1,20 / 21,219016,2020-03-17 13:55:35:935
9.14585,1.082179,-7.948749,8.0,49.82692,24.043451,358.0,NaN,1.44,8.0,29.1,20 / 21,219515,2020-03-17 13:55:36:434
8.42759,-4.625597,0.799663,8.0,49.82692,24.043451,358.0,NaN,1.44,8.0,29.1,20 / 21,220016,2020-03-17 13:55:36:935
17.717093,-9.078813,-4.055777,0.0,49.82692,24.043451,358.0,NaN,1.44,8.0,29.1,20 / 21,220515,2020-03-17 13:55:37:434
9.366117,-3.394978,-1.934515,8.0,49.82692,24.043451,358.0,NaN,1.44,8.0,29.1,20 / 21,221015,2020-03-17 13:55:37:934
16.156073,-10.639832,1.517924,8.0,49.82692,24.043451,358.0,NaN,1.44,8.0,29.1,20 / 21,221515,2020-03-17 13:55:38:434
13.757083,-6.23929,-0.411803,8.0,49.82692,24.043451,358.0,NaN,1.44,8.0,29.1,20 / 21,222016,2020-03-17 13:55:38:935
8.882488,-9.184157,2.576161,8.0,49.82692,24.043451,358.0,NaN,1.44,8.0,29.1,20 / 21,222515,2020-03-17 13:55:39:434
19.9437,-2.54743,1.968034,8.0,49.82692,24.043451,358.0,NaN,1.44,8.0,29.1,20 / 21,223015,2020-03-17 13:55:39:934
5.947197,-5.535394,-0.603339,8.0,49.82692,24.043451,358.0,NaN,1.44,8.0,29.1,20 / 21,223515,2020-03-17 13:55:40:434
6.80911,-3.495534,-1.11091,8.0,49.82692,24.043451,358.0,NaN,1.44,8.0,29.1,20 / 21,224015,2020-03-17 13:55:40:934
7.953538,-2.178723,-2.422932,8.0,49.82692,24.043451,358.0,NaN,1.44,8.0,29.1,20 / 21,224515,2020-03-17 13:55:41:434
12.914324,0.746991,-0.766144,8.0,49.82692,24.043451,358.0,NaN,1.44,8.0,29.1,20 / 21,225016,2020-03-17 13:55:41:935
7.187394,-5.918466,-0.574608,8.0,49.82692,24.043451,358.0,NaN,1.44,8.0,29.1,20 / 21,225515,2020-03-17 13:55:42:434
10.34774,0.416591,-1.058237,8.0,49.82692,24.043451,358.0,NaN,1.44,8.0,29.1,20 / 21,226015,2020-03-17 13:55:42:934
12.263102,-5.655104,0.325611,8.0,49.82692,24.043451,358.0,NaN,1.44,8.0,29.1,20 / 21,226516,2020-03-17 13:55:43:435
21.772873,-4.951209,-0.861913,8.0,49.82692,24.043451,358.0,NaN,1.44,8.0,29.1,20 / 21,227015,2020-03-17 13:55:43:934
16.548721,-3.960009,2.825158,8.0,49.82692,24.043451,358.0,NaN,1.44,8.0,29.1,20 / 21,227515,2020-03-17 13:55:44:434
4.295198,-6.579266,-0.737414,8.0,49.82692,24.043451,358.0,NaN,1.44,8.0,29.1,20 / 21,228016,2020-03-17 13:55:44:935
13.948619,-0.54109,-2.226607,8.0,49.82692,24.043451,358.0,NaN,1.44,8.0,29.1,20 / 21,228515,2020-03-17 13:55:45:434
4.031836,-4.204218,-0.292093,8.0,49.82692,24.043451,358.0,NaN,1.44,8.0,29.1,20 / 21,229015,2020-03-17 13:55:45:934
4.146757,-2.72939,-4.218583,8.0,49.82692,24.043451,358.0,NaN,1.44,8.0,29.1,20 / 21,229516,2020-03-17 13:55:46:435
4.477157,-3.193865,-1.369483,8.0,49.82692,24.043451,358.0,NaN,1.44,8.0,29.1,20 / 21,230015,2020-03-17 13:55:46:934
6.871359,0.081403,-1.345541,8.0,49.82692,24.043451,358.0,NaN,1.44,8.0,29.1,20 / 21,230515,2020-03-17 13:55:47:434
11.382035,-7.637503,-0.181959,8.0,49.82692,24.043451,358.0,NaN,1.44,8.0,29.1,20 / 21,231015,2020-03-17 13:55:47:934
19.661184,-8.408437,1.924938,8.0,49.82692,24.043451,358.0,NaN,1.44,8.0,29.1,20 / 21,231516,2020-03-17 13:55:48:435
14.681245,-5.382165,-1.455675,8.0,49.82692,24.043451,358.0,NaN,1.44,8.0,29.1,20 / 21,232015,2020-03-17 13:55:48:934
2.494758,-5.353435,-2.260126,8.0,49.82692,24.043451,358.0,NaN,1.44,8.0,29.1,20 / 21,232515,2020-03-17 13:55:49:434
9.524135,0.521936,0.962469,8.0,49.82692,24.043451,358.0,NaN,1.44,8.0,29.1,20 / 21,233015,2020-03-17 13:55:49:934
6.090849,-7.110779,-1.024718,8.0,49.82692,24.043451,358.0,NaN,1.44,8.0,29.1,20 / 21,233515,2020-03-17 13:55:50:434
10.764331,-2.011129,0.751779,8.0,49.82692,24.043451,358.0,NaN,1.44,8.0,29.1,20 / 21,234015,2020-03-17 13:55:50:934
3.768474,-4.414908,0.02873,8.0,49.82692,24.043451,358.0,NaN,1.44,8.0,29.1,20 / 21,234516,2020-03-17 13:55:51:435
15.586253,-3.371036,-1.283292,8.0,49.82692,24.043451,358.0,NaN,1.44,8.0,29.1,20 / 21,235015,2020-03-17 13:55:51:934
15.490485,-7.158663,0.56982,8.0,49.82692,24.043451,358.0,NaN,1.44,8.0,29.1,20 / 21,235515,2020-03-17 13:55:52:434
6.200983,-7.268796,0.938527,8.0,49.82692,24.043451,358.0,NaN,1.44,8.0,29.1,20 / 21,236016,2020-03-17 13:55:52:935
20.106506,-0.344765,2.815581,8.0,49.82692,24.043451,358.0,NaN,1.44,8.0,29.1,20 / 21,236515,2020-03-17 13:55:53:434
6.181829,-5.66947,-0.924162,8.0,49.82692,24.043451,358.0,NaN,1.44,8.0,29.1,20 / 21,237015,2020-03-17 13:55:53:934
17.937359,-0.062249,-0.679953,8.0,49.82692,24.043451,358.0,NaN,1.44,8.0,29.1,20 / 21,237516,2020-03-17 13:55:54:435
5.468357,-5.679046,-0.11971,8.0,49.82692,24.043451,358.0,NaN,1.44,8.0,29.1,20 / 21,238015,2020-03-17 13:55:54:934
9.035717,-2.451662,-0.454898,0.0,49.82692,24.043451,358.0,NaN,1.44,8.0,29.1,20 / 21,238515,2020-03-17 13:55:55:434
5.971139,-3.078943,0.42138,8.0,49.82692,24.043451,358.0,NaN,1.44,8.0,29.1,20 / 21,239015,2020-03-17 13:55:55:934
13.977349,2.269703,-6.545747,8.0,49.82692,24.043451,358.0,NaN,1.44,8.0,29.1,20 / 21,239516,2020-03-17 13:55:56:435
11.3964,-7.220912,1.671153,8.0,49.82692,24.043451,358.0,NaN,1.44,8.0,29.1,20 / 21,240015,2020-03-17 13:55:56:934
14.030022,-9.581595,5.846641,8.0,49.82692,24.043451,358.0,NaN,1.44,8.0,29.1,20 / 21,240515,2020-03-17 13:55:57:434
15.68681,-7.369353,-0.981623,8.0,49.82692,24.043451,358.0,NaN,1.44,8.0,29.1,20 / 21,241015,2020-03-17 13:55:57:934
1.604115,-6.320692,1.364695,8.0,49.82692,24.043451,358.0,NaN,1.44,8.0,29.1,20 / 21,241515,2020-03-17 13:55:58:434
7.522582,-2.920926,0.885855,8.0,49.82692,24.043451,358.0,NaN,1.44,8.0,29.1,20 / 21,242015,2020-03-17 13:55:58:934
3.112462,-6.569689,4.424485,8.0,49.82692,24.043451,358.0,NaN,1.44,8.0,29.1,20 / 21,242516,2020-03-17 13:55:59:435
11.731588,-4.740519,-1.096544,8.0,49.82692,24.043451,358.0,NaN,1.44,8.0,29.1,20 / 21,243015,2020-03-17 13:55:59:934
5.722142,-5.382165,-0.076614,8.0,49.82692,24.043451,358.0,NaN,1.44,8.0,29.1,20 / 21,243515,2020-03-17 13:56:00:434
5.923255,-1.929727,-1.154005,8.0,49.82692,24.043451,358.0,NaN,1.44,8.0,29.1,20 / 21,244015,2020-03-17 13:56:00:934
7.718907,-1.819593,-2.097321,8.0,49.82692,24.043451,358.0,NaN,1.44,8.0,29.1,20 / 21,244516,2020-03-17 13:56:01:435
12.631808,-3.347094,-4.271256,8.0,49.82692,24.043451,358.0,NaN,1.44,8.0,29.1,20 / 21,245015,2020-03-17 13:56:01:934
17.233463,-9.32781,0.483629,8.0,49.82692,24.043451,358.0,NaN,1.44,8.0,29.1,20 / 21,245515,2020-03-17 13:56:02:434
7.038953,-6.665457,3.155558,8.0,49.82692,24.043451,358.0,NaN,1.44,8.0,29.1,20 / 21,246015,2020-03-17 13:56:02:934
13.187263,-8.025364,1.838747,8.0,49.82692,24.043451,358.0,NaN,1.44,8.0,29.1,20 / 21,246516,2020-03-17 13:56:03:435
11.693281,-4.970362,0.368707,8.0,49.82692,24.043451,358.0,NaN,1.44,8.0,29.1,20 / 21,247015,2020-03-17 13:56:03:934
17.506401,-4.82671,1.896208,8.0,49.82692,24.043451,358.0,NaN,1.44,8.0,29.1,20 / 21,247515,2020-03-17 13:56:04:434
4.936844,-6.742072,1.201889,8.0,49.82692,24.043451,358.0,NaN,1.44,8.0,29.1,20 / 21,248015,2020-03-17 13:56:04:934
10.041282,-3.098097,-0.574608,8.0,49.82692,24.043451,358.0,NaN,1.44,8.0,29.1,20 / 21,248516,2020-03-17 13:56:05:435
4.831499,-4.922478,-0.162806,8.0,49.82692,24.043451,358.0,NaN,1.44,8.0,29.1,20 / 21,249015,2020-03-17 13:56:05:934
7.522582,0.584185,-2.394202,8.0,49.82692,24.043451,358.0,NaN,1.44,8.0,29.1,20 / 21,249515,2020-03-17 13:56:06:434
6.459556,-8.106766,3.682282,8.0,49.82692,24.043451,358.0,NaN,1.44,8.0,29.1,20 / 21,250015,2020-03-17 13:56:06:934
7.422025,0.603339,11.089942,8.0,49.82692,24.043451,358.0,NaN,1.44,8.0,29.1,20 / 21,250515,2020-03-17 13:56:07:434
19.900604,-0.785298,12.152967,8.0,49.82692,24.043451,358.0,NaN,1.44,8.0,29.1,20 / 21,251015,2020-03-17 13:56:07:934
12.488156,-3.145981,1.355118,8.0,49.82692,24.043451,358.0,NaN,1.44,8.0,29.1,20 / 21,251516,2020-03-17 13:56:08:435
12.095507,1.541866,3.007117,8.0,49.82692,24.043451,358.0,NaN,1.44,8.0,29.1,20 / 21,252015,2020-03-17 13:56:08:934
11.123461,0.177171,0.56982,8.0,49.82692,24.043451,358.0,NaN,1.44,8.0,29.1,20 / 21,252516,2020-03-17 13:56:09:435
4.515465,1.675941,-0.402226,8.0,49.82692,24.043451,358.0,NaN,1.44,8.0,29.1,20 / 21,253015,2020-03-17 13:56:09:934
4.711789,-1.40779,0.205901,8.0,49.82692,24.043451,358.0,NaN,1.44,8.0,29.1,20 / 21,253515,2020-03-17 13:56:10:434
7.843405,3.375825,0.536301,8.0,49.82692,24.043451,358.0,NaN,1.44,8.0,29.1,20 / 21,254015,2020-03-17 13:56:10:934
7.752425,-1.024718,-0.047884,8.0,49.82692,24.043451,358.0,NaN,1.44,8.0,29.1,20 / 21,254515,2020-03-17 13:56:11:434
9.155427,1.910573,-0.282516,8.0,49.82692,24.043451,358.0,NaN,1.44,8.0,29.1,20 / 21,255016,2020-03-17 13:56:11:935
19.76653,3.011906,3.65834,8.0,49.82692,24.043451,358.0,NaN,1.44,8.0,29.1,20 / 21,255515,2020-03-17 13:56:12:434
13.019669,-3.002329,-0.402226,8.0,49.82692,24.043451,358.0,NaN,1.44,8.0,29.1,20 / 21,256015,2020-03-17 13:56:12:934
11.267113,5.822699,1.383849,8.0,49.82692,24.043451,358.0,NaN,1.44,8.0,29.1,20 / 21,256515,2020-03-17 13:56:13:434
3.337517,-1.422156,-0.191536,8.0,49.82692,24.043451,358.0,NaN,1.44,8.0,29.1,20 / 21,257015,2020-03-17 13:56:13:934
6.722919,5.214572,-0.392649,8.0,49.82692,24.043451,358.0,NaN,1.44,8.0,29.1,20 / 21,257515,2020-03-17 13:56:14:434
2.920926,-2.30801,0.196325,8.0,49.82692,24.043451,358.0,NaN,1.44,8.0,29.1,20 / 21,258015,2020-03-17 13:56:14:934
9.65821,4.548983,2.375048,8.0,49.82692,24.043451,358.0,NaN,1.44,8.0,29.1,20 / 21,258515,2020-03-17 13:56:15:434
9.629479,-1.297657,-1.757344,8.0,49.82692,24.043451,358.0,NaN,1.44,8.0,29.1,20 / 21,259015,2020-03-17 13:56:15:934
21.14559,2.379837,7.254431,8.0,49.82692,24.043451,358.0,NaN,1.44,8.0,29.1,20 / 21,259515,2020-03-17 13:56:16:434
17.075447,3.562572,1.551443,8.0,49.82692,24.043451,358.0,NaN,1.44,8.0,29.1,20 / 21,260015,2020-03-17 13:56:16:934
9.002198,-1.35033,-0.234632,8.0,49.82692,24.043451,358.0,NaN,1.44,8.0,29.1,20 / 21,260515,2020-03-17 13:56:17:434
9.715671,6.426038,0.555455,8.0,49.82692,24.043451,358.0,NaN,1.44,8.0,29.1,20 / 21,261016,2020-03-17 13:56:17:935
7.412449,-5.81791,-0.837971,8.0,49.82692,24.043451,358.0,NaN,1.44,8.0,29.1,20 / 21,261515,2020-03-17 13:56:18:434
16.567875,4.333505,1.719037,8.0,49.82692,24.043451,358.0,NaN,1.44,8.0,29.1,20 / 21,262015,2020-03-17 13:56:18:934
6.009446,-3.792415,-0.110133,8.0,49.82692,24.043451,358.0,NaN,1.44,8.0,29.1,20 / 21,262515,2020-03-17 13:56:19:434
11.602302,3.064578,0.162806,8.0,49.82692,24.043451,358.0,NaN,1.44,8.0,29.1,20 / 21,263015,2020-03-17 13:56:19:934
5.195418,-3.174711,1.082179,8.0,49.82692,24.043451,358.0,NaN,1.44,8.0,29.1,20 / 21,263515,2020-03-17 13:56:20:434
6.92882,1.043872,-1.623269,8.0,49.82692,24.043451,358.0,NaN,1.44,8.0,29.1,20 / 21,264015,2020-03-17 13:56:20:934
7.11078,-2.466028,0.21069,8.0,49.82692,24.043451,358.0,NaN,1.44,8.0,29.1,20 / 21,264516,2020-03-17 13:56:21:435
11.267113,-3.849876,-2.260126,8.0,49.82692,24.043451,358.0,NaN,1.44,8.0,29.1,20 / 21,265015,2020-03-17 13:56:21:934
6.095638,-2.059013,-2.135628,8.0,49.82692,24.043451,358.0,NaN,1.44,8.0,29.1,20 / 21,265515,2020-03-17 13:56:22:434
12.172121,0.9912,-4.084508,8.0,49.82692,24.043451,358.0,NaN,1.44,8.0,29.1,20 / 21,266015,2020-03-17 13:56:22:934
11.669339,-6.210559,2.604892,8.0,49.82692,24.043451,358.0,NaN,1.44,8.0,29.1,20 / 21,266515,2020-03-17 13:56:23:434
15.337256,-5.894524,1.235408,8.0,49.82692,24.043451,358.0,NaN,1.44,8.0,29.1,20 / 21,267016,2020-03-17 13:56:23:935
20.566193,-4.458003,1.149217,8.0,49.82692,24.043451,358.0,NaN,1.44,8.0,29.1,20 / 21,267515,2020-03-17 13:56:24:434
4.797981,-4.874594,0.201113,8.0,49.82692,24.043451,358.0,NaN,1.44,8.0,29.1,20 / 21,268015,2020-03-17 13:56:24:934
13.455414,-0.933739,0.248997,8.0,49.82692,24.043451,358.0,NaN,1.44,8.0,29.1,20 / 21,268515,2020-03-17 13:56:25:434
4.118027,-5.257667,-0.272939,8.0,49.82692,24.043451,358.0,NaN,1.44,8.0,29.1,20 / 21,269015,2020-03-17 13:56:25:934
17.879898,-1.848324,1.503559,8.0,49.82692,24.043451,358.0,NaN,1.44,8.0,29.1,20 / 21,269516,2020-03-17 13:56:26:435
5.051766,-4.750096,-0.234632,8.0,49.82692,24.043451,358.0,NaN,1.44,8.0,29.1,20 / 21,270016,2020-03-17 13:56:26:935
7.73806,-0.78051,-0.407014,8.0,49.82692,24.043451,358.0,NaN,1.44,8.0,29.1,20 / 21,270515,2020-03-17 13:56:27:434
5.415684,-3.514688,-2.30801,8.0,49.82692,24.043451,358.0,NaN,1.44,8.0,29.1,20 / 21,271015,2020-03-17 13:56:27:934
11.60709,0.751779,-3.950433,0.0,49.82692,24.043451,358.0,NaN,1.44,8.0,29.1,20 / 21,271515,2020-03-17 13:56:28:434
9.725247,-7.867347,2.446874,8.0,49.82692,24.043451,358.0,NaN,1.44,8.0,29.1,20 / 21,272015,2020-03-17 13:56:28:934
14.944607,-6.311115,3.907337,8.0,49.82692,24.043451,358.0,NaN,1.44,8.0,29.1,20 / 21,272516,2020-03-17 13:56:29:435
18.018763,-7.915231,1.958457,8.0,49.82692,24.043451,358.0,NaN,1.44,8.0,29.1,20 / 21,273015,2020-03-17 13:56:29:934
14.393941,-7.728483,1.771709,8.0,49.82692,24.043451,358.0,NaN,1.44,8.0,29.1,20 / 21,273515,2020-03-17 13:56:30:434
18.14326,-6.761225,-3.021482,8.0,49.82692,24.043451,358.0,NaN,1.44,8.0,29.1,20 / 21,274015,2020-03-17 13:56:30:934
4.865018,-5.453991,2.331953,8.0,49.82692,24.043451,358.0,NaN,1.44,8.0,29.1,20 / 21,274515,2020-03-17 13:56:31:434
13.249513,1.929727,0.45011,8.0,49.82692,24.043451,358.0,NaN,1.44,8.0,29.1,20 / 21,275016,2020-03-17 13:56:31:935
5.803545,-6.186617,-0.411803,8.0,49.82692,24.043451,358.0,NaN,1.44,8.0,29.1,20 / 21,275515,2020-03-17 13:56:32:434
11.329363,-2.403778,-1.651999,8.0,49.82692,24.043451,358.0,NaN,1.44,8.0,29.1,20 / 21,276015,2020-03-17 13:56:32:934
8.968679,-7.053318,0.560243,8.0,49.82692,24.043451,358.0,NaN,1.44,8.0,29.1,0 / 0,276515,2020-03-17 13:56:33:434
12.239159,-4.098873,-4.606444,8.0,49.82692,24.043451,358.0,NaN,1.44,8.0,29.1,0 / 0,277015,2020-03-17 13:56:33:934
5.602432,-4.654328,0.129287,8.0,49.82692,24.043451,358.0,NaN,1.44,8.0,29.1,8 / 8,277516,2020-03-17 13:56:34:435
10.247183,-3.078943,-1.393425,8.0,49.82692,24.043451,358.0,NaN,1.44,8.0,29.1,8 / 8,278015,2020-03-17 13:56:34:934
5.57849,-2.54743,0.067038,8.0,49.82692,24.043451,358.0,NaN,1.44,8.0,29.1,14 / 14,278515,2020-03-17 13:56:35:434
6.627151,-1.034295,1.010353,8.0,49.82692,24.043451,358.0,NaN,1.44,8.0,29.1,14 / 14,279015,2020-03-17 13:56:35:934
6.560113,-2.418144,-0.349553,8.0,49.827206,24.044502,345.0,NaN,5.256,11.0,49.8,14 / 14,279515,2020-03-17 13:56:36:434
10.132261,-1.862689,-2.202665,8.0,49.827206,24.044502,345.0,NaN,5.256,11.0,49.8,14 / 14,280016,2020-03-17 13:56:36:935
8.542512,-6.708553,1.517924,8.0,49.827206,24.044502,345.0,NaN,5.256,11.0,49.8,14 / 14,280515,2020-03-17 13:56:37:434
11.204864,-8.791509,0.311246,8.0,49.827206,24.044502,345.0,NaN,5.256,11.0,49.8,14 / 14,281015,2020-03-17 13:56:37:934
6.430826,-4.386177,-0.78051,8.0,49.827206,24.044502,345.0,NaN,5.256,11.0,49.8,14 / 14,281515,2020-03-17 13:56:38:434
14.025233,-7.010222,-0.004788,8.0,49.827206,24.044502,345.0,NaN,5.256,11.0,49.8,14 / 14,282015,2020-03-17 13:56:38:934
14.585477,-9.351752,1.455675,8.0,49.827206,24.044502,345.0,NaN,5.256,11.0,49.8,14 / 14,282515,2020-03-17 13:56:39:434
10.888829,-6.598419,-0.612916,8.0,49.827206,24.044502,345.0,NaN,5.256,11.0,49.8,14 / 14,283016,2020-03-17 13:56:39:935
13.637373,-2.715025,1.537078,8.0,49.827206,24.044502,345.0,NaN,5.256,11.0,49.8,14 / 14,283515,2020-03-17 13:56:40:434
2.078167,-5.985504,0.134075,8.0,49.827206,24.044502,345.0,NaN,5.256,11.0,49.8,14 / 14,284015,2020-03-17 13:56:40:934
9.964667,-0.023942,3.605668,8.0,49.827206,24.044502,345.0,NaN,5.256,11.0,49.8,14 / 14,284515,2020-03-17 13:56:41:434
5.468357,-5.813122,5.43005,8.0,49.827206,24.044502,345.0,NaN,5.256,11.0,49.8,14 / 14,285015,2020-03-17 13:56:41:934
6.679823,1.80044,7.374141,8.0,49.827206,24.044502,345.0,NaN,5.256,11.0,49.8,14 / 14,285516,2020-03-17 13:56:42:435
6.78038,1.101333,12.373235,8.0,49.827206,24.044502,345.0,NaN,5.256,11.0,49.8,14 / 14,286015,2020-03-17 13:56:42:934
6.83784,1.968034,6.545748,8.0,49.827206,24.044502,345.0,NaN,5.256,11.0,49.8,14 / 14,286516,2020-03-17 13:56:43:435
8.834604,3.452439,10.970232,8.0,49.827206,24.044502,345.0,NaN,5.256,11.0,49.8,14 / 14,287015,2020-03-17 13:56:43:934
4.587291,0.814029,17.3005,8.0,49.827206,24.044502,345.0,NaN,5.256,11.0,49.8,14 / 14,287515,2020-03-17 13:56:44:434
-4.122815,3.174712,8.916007,8.0,49.827206,24.044502,345.0,NaN,5.256,11.0,49.8,14 / 14,288015,2020-03-17 13:56:44:934