ACCELEROMETER X (m/s²),ACCELEROMETER Y (m/s²),ACCELEROMETER Z (m/s²),PROXIMITY (m),LOCATION Latitude : ,LOCATION Longitude : ,LOCATION Altitude ( m),LOCATION Altitude-google ( m),LOCATION Speed ( Kmh),LOCATION Accuracy ( m),LOCATION ORIENTATION (°),Satellites in range,Time since start in ms ,YYYY-MO-DD HH-MI-SS_SSS
3.672706,4.932056,7.431602,8.0,49.846645,24.039322,374.0,NaN,0.144,29.500002,0.0,13 / 13,28,2020-03-20 16:37:53:352
6.095638,0.124498,6.014235,8.0,49.846645,24.039322,374.0,NaN,0.144,29.500002,0.0,15 / 15,529,2020-03-20 16:37:53:853
8.690952,-3.399766,5.803545,0.0,49.846645,24.039322,374.0,NaN,0.144,29.500002,0.0,15 / 15,1028,2020-03-20 16:37:54:352
15.251065,-4.515464,2.255338,0.0,49.846645,24.039322,374.0,NaN,0.144,29.500002,0.0,15 / 15,1528,2020-03-20 16:37:54:852
5.808334,-0.92895,-4.592078,0.0,49.846645,24.039322,374.0,NaN,0.144,29.500002,0.0,15 / 15,2029,2020-03-20 16:37:55:353
7.915231,-4.539406,-2.197877,0.0,49.846645,24.039322,374.0,NaN,0.144,29.500002,0.0,15 / 15,2528,2020-03-20 16:37:55:852
4.745308,-9.074024,-1.877054,0.0,49.846645,24.039322,374.0,NaN,0.144,29.500002,0.0,15 / 15,3029,2020-03-20 16:37:56:353
0.732626,-2.173935,-1.771709,0.0,49.846645,24.039322,374.0,NaN,0.144,29.500002,0.0,15 / 15,3529,2020-03-20 16:37:56:853
4.156334,-6.780379,0.90022,0.0,49.846645,24.039322,374.0,NaN,0.144,29.500002,0.0,15 / 15,4028,2020-03-20 16:37:57:352
-1.268927,-0.943315,4.625598,0.0,49.846645,24.039322,374.0,NaN,0.144,29.500002,0.0,15 / 15,4528,2020-03-20 16:37:57:852
-4.529829,-10.67814,-3.265691,0.0,49.846645,24.039322,374.0,NaN,0.144,29.500002,0.0,15 / 15,5028,2020-03-20 16:37:58:352
-1.302446,-18.708292,-2.461239,0.0,49.846645,24.039322,374.0,NaN,0.144,29.500002,0.0,15 / 15,5529,2020-03-20 16:37:58:853
-8.633492,-4.118027,12.277467,0.0,49.846645,24.039322,374.0,NaN,0.144,29.500002,0.0,15 / 15,6029,2020-03-20 16:37:59:353
0.641646,-10.730812,0.632069,0.0,49.846645,24.039322,374.0,NaN,0.144,29.500002,0.0,15 / 15,6528,2020-03-20 16:37:59:852
8.724471,-21.490355,-12.449849,0.0,49.846645,24.039322,374.0,NaN,0.144,29.500002,0.0,15 / 15,7029,2020-03-20 16:38:00:353
-12.023681,-23.300371,-0.828394,0.0,49.846645,24.039322,374.0,NaN,0.144,29.500002,0.0,15 / 15,7529,2020-03-20 16:38:00:853
3.323152,-24.339455,0.158017,0.0,49.846645,24.039322,374.0,NaN,0.144,29.500002,0.0,15 / 15,8028,2020-03-20 16:38:01:352
7.580043,-12.243947,4.587291,0.0,49.846645,24.039322,374.0,NaN,0.144,29.500002,0.0,15 / 15,8529,2020-03-20 16:38:01:853
0.723049,-18.55985,-21.854273,0.0,49.846645,24.039322,374.0,NaN,0.144,29.500002,0.0,15 / 15,9029,2020-03-20 16:38:02:353
-2.695871,-11.142614,-12.89517,0.0,49.846645,24.039322,374.0,NaN,0.144,29.500002,0.0,15 / 15,9528,2020-03-20 16:38:02:852
-3.830723,0.68953,4.52983,0.0,49.846645,24.039322,374.0,NaN,0.144,29.500002,0.0,15 / 15,10028,2020-03-20 16:38:03:352
6.665458,-8.298302,-5.185841,0.0,49.846645,24.039322,374.0,NaN,0.144,29.500002,0.0,15 / 15,10529,2020-03-20 16:38:03:853
0.229843,-2.212242,-4.189853,0.0,49.846645,24.039322,374.0,NaN,0.144,29.500002,0.0,15 / 15,11028,2020-03-20 16:38:04:352
0.54109,-7.101202,-0.196325,0.0,49.846645,24.039322,374.0,NaN,0.144,29.500002,0.0,15 / 15,11528,2020-03-20 16:38:04:852
-3.567361,0.363919,5.161899,0.0,49.846645,24.039322,374.0,NaN,0.144,29.500002,0.0,15 / 15,12029,2020-03-20 16:38:05:353
-3.093309,-4.371812,-4.381389,0.0,49.846645,24.039322,374.0,NaN,0.144,29.500002,0.0,15 / 15,12528,2020-03-20 16:38:05:852
5.846641,-11.473015,0.368707,0.0,49.846645,24.039322,374.0,NaN,0.144,29.500002,0.0,15 / 15,13028,2020-03-20 16:38:06:352
-6.517017,-8.858546,10.189722,0.0,49.846645,24.039322,374.0,NaN,0.144,29.500002,0.0,15 / 15,13529,2020-03-20 16:38:06:853
-1.005565,-17.84638,7.699753,0.0,49.846645,24.039322,374.0,NaN,0.144,29.500002,0.0,15 / 15,14029,2020-03-20 16:38:07:353
-0.426168,-34.792538,7.417237,0.0,49.846645,24.039322,374.0,NaN,0.144,29.500002,0.0,15 / 15,14528,2020-03-20 16:38:07:852
-4.592078,-16.395493,-1.862689,0.0,49.846645,24.039322,374.0,NaN,0.144,29.500002,0.0,15 / 15,15028,2020-03-20 16:38:08:352
7.560889,-18.358738,28.021736,0.0,49.846645,24.039322,374.0,NaN,0.144,29.500002,0.0,15 / 15,15529,2020-03-20 16:38:08:853
6.947974,-11.128249,-3.797204,0.0,49.846645,24.039322,374.0,NaN,0.144,29.500002,0.0,15 / 15,16029,2020-03-20 16:38:09:353
-2.030283,-24.765623,-16.002844,0.0,49.846645,24.039322,374.0,NaN,0.144,29.500002,0.0,15 / 15,16528,2020-03-20 16:38:09:852
-2.600103,-11.314998,-3.639186,0.0,49.846645,24.039322,374.0,NaN,0.144,29.500002,0.0,15 / 15,17029,2020-03-20 16:38:10:353
-3.792415,0.742203,4.400543,0.0,49.846645,24.039322,374.0,NaN,0.144,29.500002,0.0,15 / 15,17528,2020-03-20 16:38:10:852
2.710236,-6.971915,-0.071826,0.0,49.846645,24.039322,374.0,NaN,0.144,29.500002,0.0,15 / 15,18028,2020-03-20 16:38:11:352
0.392649,-7.948749,3.883395,0.0,49.846645,24.039322,374.0,NaN,0.144,29.500002,0.0,15 / 15,18529,2020-03-20 16:38:11:853
2.169147,-9.399636,-1.302446,0.0,49.846645,24.039322,374.0,NaN,0.144,29.500002,0.0,15 / 15,19029,2020-03-20 16:38:12:353
-1.211466,-2.394202,3.447651,0.0,49.846645,24.039322,374.0,NaN,0.144,29.500002,0.0,15 / 15,19528,2020-03-20 16:38:12:852
-1.8579,-11.066,2.183512,0.0,49.846645,24.039322,374.0,NaN,0.144,29.500002,0.0,15 / 15,20029,2020-03-20 16:38:13:353
-2.360683,-15.911864,-0.483629,0.0,49.846645,24.039322,374.0,NaN,0.144,29.500002,0.0,15 / 15,20529,2020-03-20 16:38:13:853
-1.096544,7.642292,8.671799,0.0,49.846645,24.039322,374.0,NaN,0.144,29.500002,0.0,15 / 15,21029,2020-03-20 16:38:14:353
-7.781155,-14.566323,-21.102493,0.0,49.846645,24.039322,374.0,NaN,0.144,29.500002,0.0,15 / 15,21528,2020-03-20 16:38:14:852
0.158017,-6.038176,-6.842628,0.0,49.846645,24.039322,374.0,NaN,0.144,29.500002,0.0,15 / 15,22028,2020-03-20 16:38:15:352
2.351106,-8.130708,-5.477933,0.0,49.846645,24.039322,374.0,NaN,0.144,29.500002,0.0,15 / 15,22529,2020-03-20 16:38:15:853
-4.299986,-0.062249,4.299987,0.0,49.846645,24.039322,374.0,NaN,0.144,29.500002,0.0,15 / 15,23029,2020-03-20 16:38:16:353
2.15957,-9.270349,-7.230489,0.0,49.846645,24.039322,374.0,NaN,0.144,29.500002,0.0,15 / 15,23529,2020-03-20 16:38:16:853
-1.671153,-0.067038,2.504335,0.0,49.846645,24.039322,374.0,NaN,0.144,29.500002,0.0,15 / 15,24028,2020-03-20 16:38:17:352
1.513135,-9.883265,1.56102,0.0,49.846645,24.039322,374.0,NaN,0.144,29.500002,0.0,15 / 15,24528,2020-03-20 16:38:17:852
0.555455,-3.035848,3.29921,0.0,49.846645,24.039322,374.0,NaN,0.144,29.500002,0.0,15 / 15,25029,2020-03-20 16:38:18:353
-1.632845,-10.553641,1.58975,0.0,49.846645,24.039322,374.0,NaN,0.144,29.500002,0.0,15 / 15,25528,2020-03-20 16:38:18:852
-1.675941,-15.485697,-2.451662,0.0,49.846645,24.039322,374.0,NaN,0.144,29.500002,0.0,15 / 15,26029,2020-03-20 16:38:19:353
4.299987,-0.751779,16.97489,0.0,49.846645,24.039322,374.0,NaN,0.144,29.500002,0.0,15 / 15,26529,2020-03-20 16:38:19:853
1.704672,-22.97476,3.27048,0.0,49.846645,24.039322,374.0,NaN,0.144,29.500002,0.0,15 / 15,27029,2020-03-20 16:38:20:353
-5.310339,-25.239674,8.805874,0.0,49.846645,24.039322,374.0,NaN,0.144,29.500002,0.0,15 / 15,27528,2020-03-20 16:38:20:852
-12.339716,-18.171991,4.668694,0.0,49.846645,24.039322,374.0,NaN,0.144,29.500002,0.0,15 / 15,28028,2020-03-20 16:38:21:352
-6.038176,-15.212758,-0.794875,0.0,49.846645,24.039322,374.0,NaN,0.144,29.500002,0.0,15 / 15,28529,2020-03-20 16:38:21:853
9.758766,-10.754754,0.301669,0.0,49.846645,24.039322,374.0,NaN,0.144,29.500002,0.0,15 / 15,29028,2020-03-20 16:38:22:352
-3.552995,-8.039729,-8.585608,0.0,49.846645,24.039322,374.0,NaN,0.144,29.500002,0.0,15 / 15,29528,2020-03-20 16:38:22:852
1.704672,-6.531382,-0.833182,0.0,49.846645,24.039322,374.0,NaN,0.144,29.500002,0.0,15 / 15,30028,2020-03-20 16:38:23:352
-1.015141,-2.240973,5.123592,0.0,49.846645,24.039322,374.0,NaN,0.144,29.500002,0.0,15 / 15,30528,2020-03-20 16:38:23:852
-3.768473,-7.096413,-1.872266,0.0,49.846645,24.039322,374.0,NaN,0.144,29.500002,0.0,15 / 15,31029,2020-03-20 16:38:24:353
-3.830723,-2.470816,4.750097,0.0,49.846645,24.039322,374.0,NaN,0.144,29.500002,0.0,15 / 15,31529,2020-03-20 16:38:24:853
-2.643199,-6.066907,-3.888183,0.0,49.846645,24.039322,374.0,NaN,0.144,29.500002,0.0,15 / 15,32028,2020-03-20 16:38:25:352
0.976834,-14.633361,-4.079719,0.0,49.846645,24.039322,374.0,NaN,0.144,29.500002,0.0,15 / 15,32529,2020-03-20 16:38:25:853
-7.575254,5.511452,7.489063,0.0,49.846645,24.039322,374.0,NaN,0.144,29.500002,0.0,15 / 15,33029,2020-03-20 16:38:26:353
-2.207454,-13.441049,-15.71554,0.0,49.846645,24.039322,374.0,NaN,0.144,29.500002,0.0,15 / 15,33529,2020-03-20 16:38:26:853
-0.656011,-14.925453,-14.235924,0.0,49.846645,24.039322,374.0,NaN,0.144,29.500002,0.0,15 / 15,34029,2020-03-20 16:38:27:353
-0.23942,-7.833828,-1.450886,0.0,49.846645,24.039322,374.0,NaN,0.144,29.500002,0.0,15 / 15,34528,2020-03-20 16:38:27:852
-2.006341,-1.11091,5.032612,0.0,49.846645,24.039322,374.0,NaN,0.144,29.500002,0.0,15 / 15,35029,2020-03-20 16:38:28:353
-2.935291,-10.433931,-1.374272,0.0,49.846645,24.039322,374.0,NaN,0.144,29.500002,0.0,15 / 15,35529,2020-03-20 16:38:28:853
-1.675941,-0.972046,4.874595,0.0,49.846645,24.039322,374.0,NaN,0.144,29.500002,0.0,15 / 15,36028,2020-03-20 16:38:29:352
-2.825158,-7.187393,-2.571372,0.0,49.846645,24.039322,374.0,NaN,0.144,29.500002,0.0,15 / 15,36528,2020-03-20 16:38:29:852
0.148441,-16.247053,-3.509899,0.0,49.846645,24.039322,374.0,NaN,0.144,29.500002,0.0,15 / 15,37028,2020-03-20 16:38:30:352
0.014365,4.955998,10.43872,0.0,49.846645,24.039322,374.0,NaN,0.144,29.500002,0.0,15 / 15,37529,2020-03-20 16:38:30:853
-4.668693,-13.139379,-16.07467,0.0,49.846645,24.039322,374.0,NaN,0.144,29.500002,0.0,15 / 15,38029,2020-03-20 16:38:31:353
-1.431733,-16.955736,-8.738836,0.0,49.846645,24.039322,374.0,NaN,0.144,29.500002,0.0,15 / 15,38529,2020-03-20 16:38:31:853
1.900996,-8.619126,-5.81791,0.0,49.846645,24.039322,374.0,NaN,0.144,29.500002,0.0,15 / 15,39029,2020-03-20 16:38:32:353
0.967258,-3.169923,-6.655881,0.0,49.846645,24.039322,374.0,NaN,0.144,29.500002,0.0,15 / 15,39529,2020-03-20 16:38:32:853
2.767697,-7.833828,-4.860229,0.0,49.846645,24.039322,374.0,NaN,0.144,29.500002,0.0,15 / 15,40028,2020-03-20 16:38:33:352
-2.164358,-0.258574,4.050989,0.0,49.846645,24.039322,374.0,NaN,0.144,29.500002,0.0,15 / 15,40529,2020-03-20 16:38:33:853
2.590526,-6.105214,-0.153229,0.0,49.846645,24.039322,374.0,NaN,0.144,29.500002,0.0,15 / 15,41029,2020-03-20 16:38:34:353
1.848324,-6.603208,4.630386,0.0,49.846645,24.039322,374.0,NaN,0.144,29.500002,0.0,15 / 15,41529,2020-03-20 16:38:34:853
8.283938,-22.242134,-6.631939,0.0,49.846645,24.039322,374.0,NaN,0.144,29.500002,0.0,15 / 15,42028,2020-03-20 16:38:35:352
-7.5561,-13.115437,4.175488,0.0,49.846645,24.039322,374.0,NaN,0.144,29.500002,0.0,15 / 15,42528,2020-03-20 16:38:35:852
-8.695741,-26.264393,-6.100425,0.0,49.846645,24.039322,374.0,NaN,0.144,29.500002,0.0,15 / 15,43029,2020-03-20 16:38:36:353
-10.01734,-19.469648,3.438074,0.0,49.846645,24.039322,374.0,NaN,0.144,29.500002,0.0,15 / 15,43529,2020-03-20 16:38:36:853
-12.119449,-37.00957,-16.318878,0.0,49.846645,24.039322,374.0,NaN,0.144,29.500002,0.0,15 / 15,44029,2020-03-20 16:38:37:353
4.716578,-10.831368,4.592079,0.0,49.846645,24.039322,374.0,NaN,0.144,29.500002,0.0,15 / 15,44528,2020-03-20 16:38:37:852
-4.553771,-18.602947,-16.76899,0.0,49.846645,24.039322,374.0,NaN,0.144,29.500002,0.0,15 / 15,45028,2020-03-20 16:38:38:352
1.594538,-5.990292,1.067814,0.0,49.846645,24.039322,374.0,NaN,0.144,29.500002,0.0,15 / 15,45528,2020-03-20 16:38:38:852
-3.145981,-0.751779,5.956774,0.0,49.846645,24.039322,374.0,NaN,0.144,29.500002,0.0,15 / 15,46029,2020-03-20 16:38:39:353
-1.905785,-8.140285,-0.292093,0.0,49.846645,24.039322,374.0,NaN,0.144,29.500002,0.0,15 / 15,46529,2020-03-20 16:38:39:853
3.466804,-12.923901,1.01993,0.0,49.846645,24.039322,374.0,NaN,0.144,29.500002,0.0,15 / 15,47028,2020-03-20 16:38:40:352
-5.51624,-38.39821,-2.614468,0.0,49.846645,24.039322,374.0,NaN,0.144,29.500002,0.0,15 / 15,47528,2020-03-20 16:38:40:852
6.110003,-9.184157,3.136404,0.0,49.846645,24.039322,374.0,NaN,0.144,29.500002,0.0,15 / 15,48029,2020-03-20 16:38:41:353
-7.163451,-21.68668,7.603985,0.0,49.846645,24.039322,374.0,NaN,0.144,29.500002,0.0,15 / 15,48529,2020-03-20 16:38:41:853
-8.51857,-17.391481,8.394072,0.0,49.846645,24.039322,374.0,NaN,0.144,29.500002,0.0,15 / 15,49028,2020-03-20 16:38:42:352
-7.781155,-23.42487,-17.492037,0.0,49.846645,24.039322,374.0,NaN,0.144,29.500002,0.0,15 / 15,49528,2020-03-20 16:38:42:852
5.990293,-8.499416,-3.083732,0.0,49.846645,24.039322,374.0,NaN,0.144,29.500002,0.0,15 / 15,50029,2020-03-20 16:38:43:353
-2.949656,-0.497994,0.416591,0.0,49.846645,24.039322,374.0,NaN,0.144,29.500002,0.0,15 / 15,50528,2020-03-20 16:38:43:852
6.416461,-6.110002,2.777274,0.0,49.846645,24.039322,374.0,NaN,0.144,29.500002,0.0,15 / 15,51029,2020-03-20 16:38:44:353
-1.029507,-2.719813,5.928044,0.0,49.846645,24.039322,374.0,NaN,0.144,29.500002,0.0,15 / 15,51529,2020-03-20 16:38:44:853
2.695871,-6.162675,0.684742,0.0,49.846645,24.039322,374.0,NaN,0.144,29.500002,0.0,15 / 15,52029,2020-03-20 16:38:45:353
-2.422932,0.067038,6.517017,0.0,49.846645,24.039322,374.0,NaN,0.144,29.500002,0.0,15 / 15,52529,2020-03-20 16:38:45:853
-1.288081,-6.847417,-0.627281,0.0,49.846645,24.039322,374.0,NaN,0.144,29.500002,0.0,15 / 15,53028,2020-03-20 16:38:46:352
6.306328,-10.0748,2.762909,0.0,49.846645,24.039322,374.0,NaN,0.144,29.500002,0.0,15 / 15,53528,2020-03-20 16:38:46:852
-4.151545,-12.588713,9.23683,0.0,49.846645,24.039322,374.0,NaN,0.144,29.500002,0.0,15 / 15,54028,2020-03-20 16:38:47:352
-14.044387,-17.45373,1.843535,0.0,49.846645,24.039322,374.0,NaN,0.144,29.500002,0.0,15 / 15,54529,2020-03-20 16:38:47:853
2.480393,-39.188293,-34.950558,0.0,49.846645,24.039322,374.0,NaN,0.144,29.500002,0.0,15 / 15,55029,2020-03-20 16:38:48:353
5.410896,-11.319786,2.992752,0.0,49.846645,24.039322,374.0,NaN,0.144,29.500002,0.0,15 / 15,55529,2020-03-20 16:38:48:853
-1.244985,14.346057,15.859192,0.0,49.846645,24.039322,374.0,NaN,0.144,29.500002,0.0,15 / 15,56028,2020-03-20 16:38:49:352
1.197101,-15.5671,-7.972691,0.0,49.846645,24.039322,374.0,NaN,0.144,29.500002,0.0,15 / 15,56528,2020-03-20 16:38:49:852
-1.537077,-21.787235,-6.880935,0.0,49.846645,24.039322,374.0,NaN,0.144,29.500002,0.0,15 / 15,57029,2020-03-20 16:38:50:353
4.592079,-9.11712,-3.902549,0.0,49.846645,24.039322,374.0,NaN,0.144,29.500002,0.0,15 / 15,57528,2020-03-20 16:38:50:852
-2.456451,0.148441,4.094085,0.0,49.846645,24.039322,374.0,NaN,0.144,29.500002,0.0,15 / 15,58028,2020-03-20 16:38:51:352
0.320823,-7.369353,1.115698,0.0,49.846645,24.039322,374.0,NaN,0.144,29.500002,0.0,15 / 15,58529,2020-03-20 16:38:51:853
-1.570596,-4.865018,4.261679,0.0,49.846645,24.039322,374.0,NaN,0.144,29.500002,0.0,15 / 15,59029,2020-03-20 16:38:52:353
-2.389413,-10.658986,2.671929,0.0,49.846645,24.039322,374.0,NaN,0.144,29.500002,0.0,15 / 15,59528,2020-03-20 16:38:52:852
-0.100556,-1.570596,6.215348,0.0,49.846645,24.039322,374.0,NaN,0.144,29.500002,0.0,15 / 15,60028,2020-03-20 16:38:53:352
-0.292093,-6.234501,-0.21069,0.0,49.846645,24.039322,374.0,NaN,0.144,29.500002,0.0,15 / 15,60529,2020-03-20 16:38:53:853
-1.647211,-16.395493,-0.794875,0.0,49.846645,24.039322,374.0,NaN,0.144,29.500002,0.0,15 / 15,61029,2020-03-20 16:38:54:353
-4.094085,-2.595315,20.173544,0.0,49.846645,24.039322,374.0,NaN,0.144,29.500002,0.0,15 / 15,61528,2020-03-20 16:38:54:852
2.734178,-19.60851,2.509123,0.0,49.846645,24.039322,374.0,NaN,0.144,29.500002,0.0,15 / 15,62028,2020-03-20 16:38:55:352
-4.098873,-8.09719,-3.648763,0.0,49.846645,24.039322,374.0,NaN,0.144,29.500002,0.0,15 / 15,62529,2020-03-20 16:38:55:853
4.994305,-11.046846,1.130063,0.0,49.846645,24.039322,374.0,NaN,0.144,29.500002,0.0,15 / 15,63028,2020-03-20 16:38:56:352
-1.211466,-2.422932,-1.666364,0.0,49.846645,24.039322,374.0,NaN,0.144,29.500002,0.0,15 / 15,63528,2020-03-20 16:38:56:852
3.983952,-10.802638,2.710236,0.0,49.846645,24.039322,374.0,NaN,0.144,29.500002,0.0,15 / 15,64029,2020-03-20 16:38:57:353
-3.323152,-7.393295,-6.38773,0.0,49.846645,24.039322,374.0,NaN,0.144,29.500002,0.0,15 / 15,64528,2020-03-20 16:38:57:852
-0.684742,-12.765883,-16.745047,0.0,49.846645,24.039322,374.0,NaN,0.144,29.500002,0.0,15 / 15,65028,2020-03-20 16:38:58:352
-2.72939,-2.868254,4.534618,0.0,49.846645,24.039322,374.0,NaN,0.144,29.500002,0.0,15 / 15,65529,2020-03-20 16:38:58:853
-2.566584,-5.224148,-1.359906,0.0,49.846645,24.039322,374.0,NaN,0.144,29.500002,0.0,15 / 15,66029,2020-03-20 16:38:59:353
1.297657,-12.952631,-3.102885,0.0,49.846645,24.039322,374.0,NaN,0.144,29.500002,0.0,15 / 15,66529,2020-03-20 16:38:59:853
-2.317587,-5.477933,19.215862,0.0,49.846645,24.039322,374.0,NaN,0.144,29.500002,0.0,15 / 15,67028,2020-03-20 16:39:00:352
4.050989,-18.349161,-1.474828,0.0,49.846645,24.039322,374.0,NaN,0.144,29.500002,0.0,15 / 15,67528,2020-03-20 16:39:00:852
-6.756437,-14.092271,9.208099,0.0,49.846645,24.039322,374.0,NaN,0.144,29.500002,0.0,0 / 0,68029,2020-03-20 16:39:01:353
-0.933739,-16.237476,-2.336741,0.0,49.846645,24.039322,374.0,NaN,0.144,29.500002,0.0,0 / 1,68528,2020-03-20 16:39:01:852
-4.869806,-14.283808,-15.495274,0.0,49.846645,24.039322,374.0,NaN,0.144,29.500002,0.0,0 / 1,69028,2020-03-20 16:39:02:352
5.770026,-10.314221,-0.177171,0.0,49.846645,24.039322,374.0,NaN,0.144,29.500002,0.0,0 / 5,69529,2020-03-20 16:39:02:853
-1.35033,-5.93762,-6.713341,0.0,49.846645,24.039322,374.0,NaN,0.144,29.500002,0.0,0 / 5,70029,2020-03-20 16:39:03:353
1.446098,-9.916783,-0.991199,0.0,49.846645,24.039322,374.0,NaN,0.144,29.500002,0.0,0 / 14,70529,2020-03-20 16:39:03:853
-1.987187,-3.083732,5.923255,0.0,49.846645,24.039322,374.0,NaN,0.144,29.500002,0.0,0 / 14,71028,2020-03-20 16:39:04:352
0.081403,-8.087613,-1.16837,0.0,49.846645,24.039322,374.0,NaN,0.144,29.500002,0.0,0 / 15,71528,2020-03-20 16:39:04:852
-3.816357,-1.393425,5.631162,0.0,49.846645,24.039322,374.0,NaN,0.144,29.500002,0.0,0 / 15,72029,2020-03-20 16:39:05:353
-1.810016,-7.484274,-1.479617,0.0,49.84588,24.040653,367.0,NaN,6.984,28.0,104.0,10 / 17,72528,2020-03-20 16:39:05:852
0.574608,-10.204087,-1.493982,0.0,49.84588,24.040653,367.0,NaN,6.984,28.0,104.0,10 / 17,73028,2020-03-20 16:39:06:352
-9.155427,-16.859968,13.283031,0.0,49.84588,24.040653,367.0,NaN,6.984,28.0,104.0,10 / 17,73529,2020-03-20 16:39:06:853
-0.943315,-19.685127,1.292869,0.0,49.84588,24.040653,367.0,NaN,6.984,28.0,104.0,10 / 17,74029,2020-03-20 16:39:07:353
-3.495534,-17.764977,-6.947973,0.0,49.84588,24.040653,367.0,NaN,6.984,28.0,104.0,10 / 17,74528,2020-03-20 16:39:07:852
1.292869,-9.030929,-1.570596,0.0,49.84588,24.040653,367.0,NaN,6.984,28.0,104.0,10 / 17,75028,2020-03-20 16:39:08:352
-3.284845,0.158017,4.371813,0.0,49.84588,24.040653,367.0,NaN,6.984,28.0,104.0,10 / 17,75529,2020-03-20 16:39:08:853
5.779603,-10.213664,-6.038176,0.0,49.84588,24.040653,367.0,NaN,6.984,28.0,104.0,10 / 17,76029,2020-03-20 16:39:09:353
-3.414132,-0.162806,4.874595,0.0,49.84588,24.040653,367.0,NaN,6.984,28.0,104.0,10 / 17,76529,2020-03-20 16:39:09:853
1.015142,-7.091625,-0.876278,0.0,49.84588,24.040653,367.0,NaN,6.984,28.0,104.0,10 / 17,77029,2020-03-20 16:39:10:353
4.735731,-7.422025,0.799663,0.0,49.84588,24.040653,367.0,NaN,6.984,28.0,104.0,10 / 17,77528,2020-03-20 16:39:10:852
7.843405,-23.942017,-6.004657,0.0,49.84588,24.040653,367.0,NaN,6.984,28.0,104.0,10 / 17,78028,2020-03-20 16:39:11:352
-12.459426,-17.72667,2.873042,0.0,49.84588,24.040653,367.0,NaN,6.984,28.0,104.0,10 / 17,78529,2020-03-20 16:39:11:853
-3.29921,-12.210428,3.715801,0.0,49.84588,24.040653,367.0,NaN,6.984,28.0,104.0,10 / 17,79028,2020-03-20 16:39:12:352
5.626374,-11.33894,2.485181,0.0,49.84588,24.040653,367.0,NaN,6.984,28.0,104.0,10 / 17,79528,2020-03-20 16:39:12:852
-0.177171,-33.882744,-19.268536,0.0,49.84588,24.040653,367.0,NaN,6.984,28.0,104.0,10 / 17,80029,2020-03-20 16:39:13:353
7.196971,-11.999739,2.264915,0.0,49.84588,24.040653,367.0,NaN,6.984,28.0,104.0,10 / 17,80529,2020-03-20 16:39:13:853
0.612916,-6.689399,-7.929596,0.0,49.84588,24.040653,367.0,NaN,6.984,28.0,104.0,10 / 17,81028,2020-03-20 16:39:14:352
1.297657,-9.059659,0.134075,0.0,49.84588,24.040653,367.0,NaN,6.984,28.0,104.0,10 / 17,81528,2020-03-20 16:39:14:852
0.234632,-6.344634,4.041412,0.0,49.84588,24.040653,367.0,NaN,6.984,28.0,104.0,10 / 17,82029,2020-03-20 16:39:15:353
3.27048,-14.092271,-2.442086,0.0,49.84588,24.040653,367.0,NaN,6.984,28.0,104.0,10 / 17,82529,2020-03-20 16:39:15:853
-8.39886,-16.773777,3.53863,0.0,49.84588,24.040653,367.0,NaN,6.984,28.0,104.0,10 / 17,83028,2020-03-20 16:39:16:352
7.345411,-31.584309,-13.508086,0.0,49.84588,24.040653,367.0,NaN,6.984,28.0,104.0,10 / 17,83529,2020-03-20 16:39:16:853
-9.414001,-19.31163,3.969586,0.0,49.84588,24.040653,367.0,NaN,6.984,28.0,104.0,10 / 17,84029,2020-03-20 16:39:17:353
7.225701,-19.622877,33.22673,0.0,49.84588,24.040653,367.0,NaN,6.984,28.0,104.0,10 / 17,84528,2020-03-20 16:39:17:852
6.258444,-12.459426,1.158794,0.0,49.84588,24.040653,367.0,NaN,6.984,28.0,104.0,10 / 17,85028,2020-03-20 16:39:18:352
-9.849746,-16.601395,-23.870192,0.0,49.84588,24.040653,367.0,NaN,6.984,28.0,104.0,10 / 17,85529,2020-03-20 16:39:18:853
2.37026,-7.982268,1.345541,0.0,49.84588,24.040653,367.0,NaN,6.984,28.0,104.0,10 / 17,86029,2020-03-20 16:39:19:353
-0.526724,-2.715025,6.291962,0.0,49.84588,24.040653,367.0,NaN,6.984,28.0,104.0,10 / 17,86528,2020-03-20 16:39:19:852
1.651999,-10.663774,-2.8491,0.0,49.84588,24.040653,367.0,NaN,6.984,28.0,104.0,10 / 17,87028,2020-03-20 16:39:20:352
-9.648633,-20.566193,-0.54109,0.0,49.84588,24.040653,367.0,NaN,6.984,28.0,104.0,10 / 17,87528,2020-03-20 16:39:20:852
2.806004,-7.905654,0.354342,0.0,49.84588,24.040653,367.0,NaN,6.984,28.0,104.0,10 / 17,88029,2020-03-20 16:39:21:353
-7.07726,-20.537462,0.45011,0.0,49.84588,24.040653,367.0,NaN,6.984,28.0,104.0,10 / 17,88529,2020-03-20 16:39:21:853
-3.414132,1.61848,12.995727,0.0,49.84588,24.040653,367.0,NaN,6.984,28.0,104.0,10 / 17,89028,2020-03-20 16:39:22:352
1.029507,-10.726024,4.204219,0.0,49.84588,24.040653,367.0,NaN,6.984,28.0,104.0,10 / 17,89528,2020-03-20 16:39:22:852
-4.831499,-13.206416,-12.162544,0.0,49.84588,24.040653,367.0,NaN,6.984,28.0,104.0,10 / 17,90029,2020-03-20 16:39:23:353
1.508347,-9.184157,1.005565,0.0,49.84588,24.040653,367.0,NaN,6.984,28.0,104.0,10 / 17,90529,2020-03-20 16:39:23:853
-1.278504,-4.118027,4.007894,0.0,49.84588,24.040653,367.0,NaN,6.984,28.0,104.0,10 / 17,91029,2020-03-20 16:39:24:353
4.323929,-11.314998,3.711013,0.0,49.84588,24.040653,367.0,NaN,6.984,28.0,104.0,10 / 17,91528,2020-03-20 16:39:24:852
-3.505111,-1.307234,4.276045,0.0,49.84588,24.040653,367.0,NaN,6.984,28.0,104.0,10 / 17,92028,2020-03-20 16:39:25:352
4.098873,-13.010092,0.277727,0.0,49.84588,24.040653,367.0,NaN,6.984,28.0,104.0,10 / 17,92528,2020-03-20 16:39:25:852
-7.460332,-21.341913,-0.416591,0.0,49.84588,24.040653,367.0,NaN,6.984,28.0,104.0,10 / 17,93029,2020-03-20 16:39:26:353
-4.927267,5.966351,10.682928,0.0,49.84588,24.040653,367.0,NaN,6.984,28.0,104.0,10 / 17,93528,2020-03-20 16:39:26:852
2.212242,-12.540829,2.72939,0.0,49.84588,24.040653,367.0,NaN,6.984,28.0,104.0,10 / 17,94028,2020-03-20 16:39:27:352
-7.311892,-25.718515,-21.65795,0.0,49.84588,24.040653,367.0,NaN,6.984,28.0,104.0,10 / 17,94528,2020-03-20 16:39:27:852
-2.006341,-9.744401,-3.394978,0.0,49.84588,24.040653,367.0,NaN,6.984,28.0,104.0,10 / 17,95029,2020-03-20 16:39:28:353
-2.892196,-3.481169,3.912126,0.0,49.84588,24.040653,367.0,NaN,6.984,28.0,104.0,10 / 17,95529,2020-03-20 16:39:28:853
1.029507,-10.007763,-0.301669,0.0,49.84588,24.040653,367.0,NaN,6.984,28.0,104.0,10 / 17,96028,2020-03-20 16:39:29:352
-4.280833,-2.183512,4.424485,0.0,49.84588,24.040653,367.0,NaN,6.984,28.0,104.0,10 / 17,96528,2020-03-20 16:39:29:852
-3.141193,-6.220136,-3.667917,0.0,49.84588,24.040653,367.0,NaN,6.984,28.0,104.0,10 / 17,97029,2020-03-20 16:39:30:353
3.581726,-11.247959,-2.054225,0.0,49.84588,24.040653,367.0,NaN,6.984,28.0,104.0,10 / 17,97529,2020-03-20 16:39:30:853
-5.324704,-10.352529,16.127342,0.0,49.84588,24.040653,367.0,NaN,6.984,28.0,104.0,10 / 17,98028,2020-03-20 16:39:31:352
6.703765,-17.21431,-4.836287,0.0,49.84588,24.040653,367.0,NaN,6.984,28.0,104.0,10 / 17,98528,2020-03-20 16:39:31:852
0.215478,0.469264,-6.143522,0.0,49.84588,24.040653,367.0,NaN,6.984,28.0,104.0,10 / 17,99029,2020-03-20 16:39:32:353
4.879383,-11.812991,-4.730942,0.0,49.84588,24.040653,367.0,NaN,6.984,28.0,104.0,10 / 17,99528,2020-03-20 16:39:32:852
2.964022,-3.002329,-8.705317,0.0,49.84588,24.040653,367.0,NaN,6.984,28.0,104.0,10 / 17,100029,2020-03-20 16:39:33:353
4.481946,-12.445061,-7.043741,0.0,49.84588,24.040653,367.0,NaN,6.984,28.0,104.0,10 / 17,100529,2020-03-20 16:39:33:853
-0.914585,-2.384625,-0.311246,0.0,49.84588,24.040653,367.0,NaN,6.984,28.0,104.0,10 / 17,101028,2020-03-20 16:39:34:352
2.121263,-7.359776,-0.02873,0.0,49.84588,24.040653,367.0,NaN,6.984,28.0,104.0,10 / 17,101528,2020-03-20 16:39:34:852
2.676718,-4.865018,4.252103,0.0,49.84588,24.040653,367.0,NaN,6.984,28.0,104.0,10 / 17,102028,2020-03-20 16:39:35:352
1.01993,-10.955867,-1.80044,0.0,49.84588,24.040653,367.0,NaN,6.984,28.0,104.0,10 / 17,102528,2020-03-20 16:39:35:852
-8.992621,-18.77533,1.326388,0.0,49.84588,24.040653,367.0,NaN,6.984,28.0,104.0,10 / 17,103028,2020-03-20 16:39:36:352
0.320823,-3.744531,29.788658,0.0,49.84588,24.040653,367.0,NaN,6.984,28.0,104.0,10 / 17,103529,2020-03-20 16:39:36:853
-8.42759,-21.662737,-1.144428,0.0,49.84588,24.040653,367.0,NaN,6.984,28.0,104.0,10 / 17,104028,2020-03-20 16:39:37:352
2.801216,6.775591,11.927913,0.0,49.84588,24.040653,367.0,NaN,6.984,28.0,104.0,10 / 17,104528,2020-03-20 16:39:37:852
0.373495,-13.594277,-8.374918,0.0,49.84588,24.040653,367.0,NaN,6.984,28.0,104.0,10 / 17,105028,2020-03-20 16:39:38:352
-1.47004,-24.38255,-18.104954,0.0,49.84588,24.040653,367.0,NaN,6.984,28.0,104.0,10 / 17,105528,2020-03-20 16:39:38:852
1.551443,-9.562442,-2.628833,0.0,49.84588,24.040653,367.0,NaN,6.984,28.0,104.0,10 / 17,106029,2020-03-20 16:39:39:353
-4.544194,-2.499546,5.00867,0.0,49.84588,24.040653,367.0,NaN,6.984,28.0,104.0,10 / 17,106528,2020-03-20 16:39:39:852
-2.073379,-6.066907,-2.590526,0.0,49.84588,24.040653,367.0,NaN,6.984,28.0,104.0,10 / 17,107029,2020-03-20 16:39:40:353
3.567361,-10.817003,-0.651223,0.0,49.84588,24.040653,367.0,NaN,6.984,28.0,104.0,10 / 17,107528,2020-03-20 16:39:40:852
-1.771709,-6.924031,-1.503559,0.0,49.84588,24.040653,367.0,NaN,6.984,28.0,104.0,10 / 17,108028,2020-03-20 16:39:41:352
4.218584,-9.203311,-1.493982,0.0,49.84588,24.040653,367.0,NaN,6.984,28.0,104.0,10 / 17,108528,2020-03-20 16:39:41:852
-9.093178,-20.949265,4.285621,0.0,49.84588,24.040653,367.0,NaN,6.984,28.0,104.0,10 / 17,109028,2020-03-20 16:39:42:352
4.247314,-16.79772,-4.328717,0.0,49.84588,24.040653,367.0,NaN,6.984,28.0,104.0,10 / 17,109529,2020-03-20 16:39:42:853
-1.608903,-2.217031,-6.770802,0.0,49.84588,24.040653,367.0,NaN,6.984,28.0,104.0,10 / 17,110028,2020-03-20 16:39:43:352
3.5099,-9.476251,-3.89776,0.0,49.84588,24.040653,367.0,NaN,6.984,28.0,104.0,10 / 17,110529,2020-03-20 16:39:43:853
-3.605668,-2.006341,4.180277,0.0,49.84588,24.040653,367.0,NaN,6.984,28.0,104.0,10 / 17,111028,2020-03-20 16:39:44:352
2.94008,-8.978256,-6.210559,0.0,49.84588,24.040653,367.0,NaN,6.984,28.0,104.0,10 / 17,111528,2020-03-20 16:39:44:852
-1.977611,-1.479617,3.428497,0.0,49.84588,24.040653,367.0,NaN,6.984,28.0,104.0,10 / 17,112028,2020-03-20 16:39:45:352
-1.335964,-7.920019,-2.044648,0.0,49.84588,24.040653,367.0,NaN,6.984,28.0,104.0,10 / 17,112528,2020-03-20 16:39:45:852
9.610326,-8.75799,1.455675,0.0,49.84588,24.040653,367.0,NaN,6.984,28.0,104.0,10 / 17,113029,2020-03-20 16:39:46:353
10.936713,-25.19179,1.125275,0.0,49.84588,24.040653,367.0,NaN,6.984,28.0,104.0,10 / 17,113528,2020-03-20 16:39:46:852
-8.111555,-14.403518,2.695871,0.0,49.84588,24.040653,367.0,NaN,6.984,28.0,104.0,10 / 17,114029,2020-03-20 16:39:47:353
-2.873042,-38.68072,-21.284452,0.0,49.84588,24.040653,367.0,NaN,6.984,28.0,104.0,10 / 17,114528,2020-03-20 16:39:47:852
2.413355,-10.788273,-1.953669,0.0,49.84588,24.040653,367.0,NaN,6.984,28.0,104.0,10 / 17,115028,2020-03-20 16:39:48:352
1.340753,-4.458003,-2.035071,0.0,49.84588,24.040653,367.0,NaN,6.984,28.0,104.0,10 / 17,115529,2020-03-20 16:39:48:853
7.144298,-12.229582,4.161122,0.0,49.84588,24.040653,367.0,NaN,6.984,28.0,104.0,10 / 17,116028,2020-03-20 16:39:49:352
-6.684611,-18.459295,-18.392258,0.0,49.84588,24.040653,367.0,NaN,6.984,28.0,104.0,10 / 17,116528,2020-03-20 16:39:49:852
-1.719037,-10.295067,-4.625597,0.0,49.84588,24.040653,367.0,NaN,6.984,28.0,104.0,10 / 17,117029,2020-03-20 16:39:50:353
-4.505887,-2.355894,4.13718,0.0,49.84588,24.040653,367.0,NaN,6.984,28.0,104.0,10 / 17,117529,2020-03-20 16:39:50:853
-1.522712,-7.067683,-3.074155,0.0,49.84588,24.040653,367.0,NaN,6.984,28.0,104.0,10 / 17,118028,2020-03-20 16:39:51:352
0.507571,-11.942278,-1.991976,0.0,49.84588,24.040653,367.0,NaN,6.984,28.0,104.0,10 / 17,118528,2020-03-20 16:39:51:852
-5.233725,-0.172383,9.260772,0.0,49.84588,24.040653,367.0,NaN,6.984,28.0,104.0,10 / 17,119029,2020-03-20 16:39:52:353
4.481946,-16.639702,-4.481945,0.0,49.84588,24.040653,367.0,NaN,6.984,28.0,104.0,10 / 17,119529,2020-03-20 16:39:52:853
-7.038953,-22.539015,5.535394,0.0,49.84588,24.040653,367.0,NaN,6.984,28.0,104.0,10 / 17,120028,2020-03-20 16:39:53:352
0.234632,-15.74427,-2.42772,0.0,49.84588,24.040653,367.0,NaN,6.984,28.0,104.0,10 / 17,120529,2020-03-20 16:39:53:853
2.269703,-4.252102,-9.32781,0.0,49.84588,24.040653,367.0,NaN,6.984,28.0,104.0,10 / 17,121028,2020-03-20 16:39:54:352
6.502652,-11.750742,-3.964798,0.0,49.84588,24.040653,367.0,NaN,6.984,28.0,104.0,10 / 17,121528,2020-03-20 16:39:54:852
-1.460463,-2.571372,0.009577,0.0,49.84588,24.040653,367.0,NaN,6.984,28.0,104.0,10 / 17,122029,2020-03-20 16:39:55:353
2.643199,-8.671799,-0.632069,0.0,49.84588,24.040653,367.0,NaN,6.984,28.0,104.0,10 / 17,122529,2020-03-20 16:39:55:853
3.667917,-6.042965,5.66947,0.0,49.84588,24.040653,367.0,NaN,6.984,28.0,104.0,10 / 17,123028,2020-03-20 16:39:56:352
5.415684,-13.891158,-2.466028,0.0,49.84588,24.040653,367.0,NaN,6.984,28.0,104.0,10 / 17,123528,2020-03-20 16:39:56:852
-0.416591,-4.994304,5.066131,0.0,49.84588,24.040653,367.0,NaN,6.984,28.0,104.0,10 / 17,124028,2020-03-20 16:39:57:352
2.705448,-10.711658,2.643199,0.0,49.84588,24.040653,367.0,NaN,6.984,28.0,104.0,10 / 17,124529,2020-03-20 16:39:57:853
-9.940725,-21.691467,-0.445322,0.0,49.84588,24.040653,367.0,NaN,6.984,28.0,104.0,10 / 17,125029,2020-03-20 16:39:58:353
-6.83784,-2.226607,10.989386,0.0,49.84588,24.040653,367.0,NaN,6.984,28.0,104.0,10 / 17,125529,2020-03-20 16:39:58:853
0.54109,-12.593501,-1.561019,0.0,49.84588,24.040653,367.0,NaN,6.984,28.0,104.0,10 / 17,126028,2020-03-20 16:39:59:352
-4.510676,-19.718645,-22.878992,0.0,49.84588,24.040653,367.0,NaN,6.984,28.0,104.0,10 / 17,126528,2020-03-20 16:39:59:852
1.49877,-11.439496,-5.104438,0.0,49.84588,24.040653,367.0,NaN,6.984,28.0,104.0,10 / 17,127029,2020-03-20 16:40:00:353
-4.338293,-3.078943,4.544195,0.0,49.84588,24.040653,367.0,NaN,6.984,28.0,104.0,10 / 17,127528,2020-03-20 16:40:00:852
-1.225831,-8.657434,0.248997,0.0,49.84588,24.040653,367.0,NaN,6.984,28.0,104.0,0 / 0,128028,2020-03-20 16:40:01:352
-4.88896,-3.294421,4.726155,0.0,49.84588,24.040653,367.0,NaN,6.984,28.0,104.0,0 / 0,128529,2020-03-20 16:40:01:853
-1.80044,-5.90889,-1.154005,0.0,49.84588,24.040653,367.0,NaN,6.984,28.0,104.0,0 / 1,129029,2020-03-20 16:40:02:353
1.039084,-11.27669,-0.991199,0.0,49.84588,24.040653,367.0,NaN,6.984,28.0,104.0,0 / 1,129529,2020-03-20 16:40:02:853
-3.926491,-6.234501,18.823214,0.0,49.84588,24.040653,367.0,NaN,6.984,28.0,104.0,0 / 3,130028,2020-03-20 16:40:03:352
-4.118027,-14.5759,-6.794744,0.0,49.84588,24.040653,367.0,NaN,6.984,28.0,104.0,0 / 3,130528,2020-03-20 16:40:03:852
-1.728614,-17.51598,-5.439626,0.0,49.84588,24.040653,367.0,NaN,6.984,28.0,104.0,0 / 14,131029,2020-03-20 16:40:04:353
2.762909,-8.973468,-2.681506,0.0,49.84588,24.040653,367.0,NaN,6.984,28.0,104.0,0 / 14,131529,2020-03-20 16:40:04:853
-1.843535,-6.775591,-3.246537,0.0,49.845264,24.040016,376.0,NaN,6.048,27.0,228.0,16 / 16,132028,2020-03-20 16:40:05:352
3.481169,-9.782708,-3.816357,0.0,49.845264,24.040016,376.0,NaN,6.048,27.0,228.0,16 / 16,132529,2020-03-20 16:40:05:853
-1.35033,-1.278504,3.442862,0.0,49.845264,24.040016,376.0,NaN,6.048,27.0,228.0,16 / 16,133028,2020-03-20 16:40:06:352
1.206678,-7.460332,0.617704,0.0,49.845264,24.040016,376.0,NaN,6.048,27.0,228.0,16 / 16,133528,2020-03-20 16:40:06:852
1.340753,-6.119579,5.248091,0.0,49.845264,24.040016,376.0,NaN,6.048,27.0,228.0,16 / 16,134028,2020-03-20 16:40:07:352
0.220267,-7.426813,-0.402226,0.0,49.845264,24.040016,376.0,NaN,6.048,27.0,228.0,16 / 16,134529,2020-03-20 16:40:07:853
-10.314221,-18.061857,1.058237,0.0,49.845264,24.040016,376.0,NaN,6.048,27.0,228.0,16 / 16,135028,2020-03-20 16:40:08:352
-0.378284,-16.390705,37.948097,0.0,49.845264,24.040016,376.0,NaN,6.048,27.0,228.0,16 / 16,135528,2020-03-20 16:40:08:852
-6.253655,-19.273323,-0.694318,0.0,49.845264,24.040016,376.0,NaN,6.048,27.0,228.0,16 / 16,136028,2020-03-20 16:40:09:352
-5.832275,12.842498,0.713472,0.0,49.845264,24.040016,376.0,NaN,6.048,27.0,228.0,16 / 16,136529,2020-03-20 16:40:09:853
-6.014234,-11.425131,-12.564771,0.0,49.845264,24.040016,376.0,NaN,6.048,27.0,228.0,16 / 16,137029,2020-03-20 16:40:10:353
-3.141193,-11.540052,-12.579136,0.0,49.845264,24.040016,376.0,NaN,6.048,27.0,228.0,16 / 16,137528,2020-03-20 16:40:10:852
-0.459687,-9.44752,-0.545878,0.0,49.845264,24.040016,376.0,NaN,6.048,27.0,228.0,16 / 16,138028,2020-03-20 16:40:11:352
-3.653552,-1.695095,4.381389,0.0,49.845264,24.040016,376.0,NaN,6.048,27.0,228.0,16 / 16,138529,2020-03-20 16:40:11:853
-0.670376,-5.06613,0.148441,0.0,49.845264,24.040016,376.0,NaN,6.048,27.0,228.0,16 / 16,139028,2020-03-20 16:40:12:352
7.268797,-8.465898,0.301669,0.0,49.845264,24.040016,376.0,NaN,6.048,27.0,228.0,16 / 16,139528,2020-03-20 16:40:12:852
1.130063,-7.728483,-1.288081,0.0,49.845264,24.040016,376.0,NaN,6.048,27.0,228.0,16 / 16,140029,2020-03-20 16:40:13:353
5.966351,-8.374918,-0.469264,0.0,49.845264,24.040016,376.0,NaN,6.048,27.0,228.0,16 / 16,140528,2020-03-20 16:40:13:852
9.758766,-26.834213,-2.470816,0.0,49.845264,24.040016,376.0,NaN,6.048,27.0,228.0,16 / 16,141028,2020-03-20 16:40:14:352
-9.730036,-15.404294,3.428497,0.0,49.845264,24.040016,376.0,NaN,6.048,27.0,228.0,16 / 16,141529,2020-03-20 16:40:14:853
7.441179,-31.052795,8.034941,0.0,49.845264,24.040016,376.0,NaN,6.048,27.0,228.0,16 / 16,142029,2020-03-20 16:40:15:353
6.062119,-10.170568,0.852336,0.0,49.845264,24.040016,376.0,NaN,6.048,27.0,228.0,16 / 16,142528,2020-03-20 16:40:15:852
-2.614468,-3.902549,-2.585738,0.0,49.845264,24.040016,376.0,NaN,6.048,27.0,228.0,16 / 16,143028,2020-03-20 16:40:16:352
0.311246,-8.523358,-0.100556,0.0,49.845264,24.040016,376.0,NaN,6.048,27.0,228.0,16 / 16,143529,2020-03-20 16:40:16:853
-1.292869,-7.795521,-6.421249,0.0,49.845264,24.040016,376.0,NaN,6.048,27.0,228.0,16 / 16,144029,2020-03-20 16:40:17:353
2.738967,-7.52737,0.828394,0.0,49.845264,24.040016,376.0,NaN,6.048,27.0,228.0,16 / 16,144529,2020-03-20 16:40:17:853
-1.11091,-4.01747,4.328717,0.0,49.845264,24.040016,376.0,NaN,6.048,27.0,228.0,16 / 16,145028,2020-03-20 16:40:18:352
-2.011129,-7.278373,1.719037,0.0,49.845264,24.040016,376.0,NaN,6.048,27.0,228.0,16 / 16,145528,2020-03-20 16:40:18:852
-2.557007,-14.647726,-1.264138,0.0,49.845264,24.040016,376.0,NaN,6.048,27.0,228.0,16 / 16,146029,2020-03-20 16:40:19:353
-5.363012,0.378284,12.856863,0.0,49.845264,24.040016,376.0,NaN,6.048,27.0,228.0,16 / 16,146529,2020-03-20 16:40:19:853
2.786851,-15.121778,-0.076614,0.0,49.845264,24.040016,376.0,NaN,6.048,27.0,228.0,16 / 16,147029,2020-03-20 16:40:20:353
0.948104,-12.856863,-3.89776,0.0,49.845264,24.040016,376.0,NaN,6.048,27.0,228.0,16 / 16,147528,2020-03-20 16:40:20:852
1.704672,-15.988479,-4.491522,0.0,49.845264,24.040016,376.0,NaN,6.048,27.0,228.0,16 / 16,148028,2020-03-20 16:40:21:352
-2.604891,-6.153098,-4.01747,0.0,49.845264,24.040016,376.0,NaN,6.048,27.0,228.0,16 / 16,148528,2020-03-20 16:40:21:852
0.474052,-9.89763,-3.816357,0.0,49.845264,24.040016,376.0,NaN,6.048,27.0,228.0,16 / 16,149029,2020-03-20 16:40:22:353
-3.859453,-2.073379,4.592079,0.0,49.845264,24.040016,376.0,NaN,6.048,27.0,228.0,16 / 16,149529,2020-03-20 16:40:22:853
-2.724601,-6.665457,-1.958457,0.0,49.845264,24.040016,376.0,NaN,6.048,27.0,228.0,16 / 16,150029,2020-03-20 16:40:23:353
7.728483,-9.217676,-1.029507,0.0,49.845264,24.040016,376.0,NaN,6.048,27.0,228.0,16 / 16,150529,2020-03-20 16:40:23:853
0.052672,-24.976313,2.911349,0.0,49.845264,24.040016,376.0,NaN,6.048,27.0,228.0,16 / 16,151028,2020-03-20 16:40:24:352
-4.266467,-15.040375,-2.422932,0.0,49.845264,24.040016,376.0,NaN,6.048,27.0,228.0,16 / 16,151528,2020-03-20 16:40:24:852
1.905785,-26.762386,2.882619,0.0,49.845264,24.040016,376.0,NaN,6.048,27.0,228.0,16 / 16,152029,2020-03-20 16:40:25:353
-7.541735,-15.849615,3.29921,0.0,49.845264,24.040016,376.0,NaN,6.048,27.0,228.0,16 / 16,152529,2020-03-20 16:40:25:853
-0.651223,-35.434185,-13.412318,0.0,49.845264,24.040016,376.0,NaN,6.048,27.0,228.0,16 / 16,153028,2020-03-20 16:40:26:352
5.291186,-10.845734,0.42138,0.0,49.845264,24.040016,376.0,NaN,6.048,27.0,228.0,16 / 16,153528,2020-03-20 16:40:26:852
-4.146757,-9.840169,-4.965574,0.0,49.845264,24.040016,376.0,NaN,6.048,27.0,228.0,16 / 16,154028,2020-03-20 16:40:27:352
1.795651,-7.474697,1.61848,0.0,49.845264,24.040016,376.0,NaN,6.048,27.0,228.0,16 / 16,154529,2020-03-20 16:40:27:853
-3.203442,-3.634398,4.884172,0.0,49.845264,24.040016,376.0,NaN,6.048,27.0,228.0,16 / 16,155029,2020-03-20 16:40:28:353
3.524265,-6.751649,-0.962469,0.0,49.845264,24.040016,376.0,NaN,6.048,27.0,228.0,16 / 16,155529,2020-03-20 16:40:28:853
-4.884171,-2.384625,4.802769,0.0,49.845264,24.040016,376.0,NaN,6.048,27.0,228.0,16 / 16,156028,2020-03-20 16:40:29:352
-1.996764,-6.440402,-1.149217,0.0,49.845264,24.040016,376.0,NaN,6.048,27.0,228.0,16 / 16,156528,2020-03-20 16:40:29:852
-0.919373,-14.532804,-2.523488,0.0,49.845264,24.040016,376.0,NaN,6.048,27.0,228.0,16 / 16,157029,2020-03-20 16:40:30:353
-4.529829,10.424355,-1.024718,0.0,49.845264,24.040016,376.0,NaN,6.048,27.0,228.0,16 / 16,157529,2020-03-20 16:40:30:853
4.252103,-15.318103,-1.690306,0.0,49.845264,24.040016,376.0,NaN,6.048,27.0,228.0,16 / 16,158028,2020-03-20 16:40:31:352
-4.898536,-15.964537,-7.465121,0.0,49.845264,24.040016,376.0,NaN,6.048,27.0,228.0,16 / 16,158528,2020-03-20 16:40:31:852
1.460463,-8.815451,-0.416591,0.0,49.845264,24.040016,376.0,NaN,6.048,27.0,228.0,16 / 16,159029,2020-03-20 16:40:32:353
-4.390966,-1.584961,4.390966,0.0,49.845264,24.040016,376.0,NaN,6.048,27.0,228.0,16 / 16,159529,2020-03-20 16:40:32:853
2.58095,-8.968679,-3.830723,0.0,49.845264,24.040016,376.0,NaN,6.048,27.0,228.0,16 / 16,160028,2020-03-20 16:40:33:352
-3.332729,-1.288081,4.683059,0.0,49.845264,24.040016,376.0,NaN,6.048,27.0,228.0,16 / 16,160528,2020-03-20 16:40:33:852
-0.976834,-6.301539,-1.881842,0.0,49.845264,24.040016,376.0,NaN,6.048,27.0,228.0,16 / 16,161028,2020-03-20 16:40:34:352
4.247314,-9.457097,-0.162806,0.0,49.845264,24.040016,376.0,NaN,6.048,27.0,228.0,16 / 16,161529,2020-03-20 16:40:34:853
-2.901772,-25.55571,4.989517,0.0,49.845264,24.040016,376.0,NaN,6.048,27.0,228.0,16 / 16,162029,2020-03-20 16:40:35:353
-2.509123,-15.576676,-0.02873,0.0,49.845264,24.040016,376.0,NaN,6.048,27.0,228.0,16 / 16,162528,2020-03-20 16:40:35:852
-9.203311,-21.059399,-8.058882,0.0,49.845264,24.040016,376.0,NaN,6.048,27.0,228.0,16 / 16,163028,2020-03-20 16:40:36:352
5.051766,-10.390836,1.810017,0.0,49.845264,24.040016,376.0,NaN,6.048,27.0,228.0,16 / 16,163529,2020-03-20 16:40:36:853
-3.653552,-34.52918,-15.423448,0.0,49.845264,24.040016,376.0,NaN,6.048,27.0,228.0,16 / 16,164029,2020-03-20 16:40:37:353
5.765238,-10.769119,0.143652,0.0,49.845264,24.040016,376.0,NaN,6.048,27.0,228.0,16 / 16,164528,2020-03-20 16:40:37:852
-4.094085,-6.813898,-3.371036,0.0,49.845264,24.040016,376.0,NaN,6.048,27.0,228.0,16 / 16,165028,2020-03-20 16:40:38:352
1.575385,-8.298302,0.354342,0.0,49.845264,24.040016,376.0,NaN,6.048,27.0,228.0,16 / 16,165528,2020-03-20 16:40:38:852
-1.388637,-4.103661,4.333505,0.0,49.845264,24.040016,376.0,NaN,6.048,27.0,228.0,16 / 16,166029,2020-03-20 16:40:39:353
-0.215478,-6.306327,3.495535,0.0,49.845264,24.040016,376.0,NaN,6.048,27.0,228.0,16 / 16,166529,2020-03-20 16:40:39:853
-5.501875,-20.66675,-0.244209,0.0,49.845264,24.040016,376.0,NaN,6.048,27.0,228.0,16 / 16,167028,2020-03-20 16:40:40:352
-7.120356,15.399506,-1.608903,0.0,49.845264,24.040016,376.0,NaN,6.048,27.0,228.0,16 / 16,167529,2020-03-20 16:40:40:853
-2.178723,-14.882358,-7.589619,0.0,49.845264,24.040016,376.0,NaN,6.048,27.0,228.0,16 / 16,168029,2020-03-20 16:40:41:353
1.968034,10.117896,6.272809,0.0,49.845264,24.040016,376.0,NaN,6.048,27.0,228.0,16 / 16,168529,2020-03-20 16:40:41:853
2.202666,-20.15439,-1.063026,0.0,49.845264,24.040016,376.0,NaN,6.048,27.0,228.0,16 / 16,169028,2020-03-20 16:40:42:352
1.484405,-2.360683,-8.394072,0.0,49.845264,24.040016,376.0,NaN,6.048,27.0,228.0,16 / 16,169530,2020-03-20 16:40:42:854
6.38773,-10.860099,-0.804452,0.0,49.845264,24.040016,376.0,NaN,6.048,27.0,228.0,16 / 16,170028,2020-03-20 16:40:43:352
-0.282516,-3.854665,-6.828263,0.0,49.845264,24.040016,376.0,NaN,6.048,27.0,228.0,16 / 16,170528,2020-03-20 16:40:43:852
2.748544,-9.14585,0.181959,0.0,49.845264,24.040016,376.0,NaN,6.048,27.0,228.0,16 / 16,171028,2020-03-20 16:40:44:352
3.438074,-5.861006,5.722142,0.0,49.845264,24.040016,376.0,NaN,6.048,27.0,228.0,16 / 16,171529,2020-03-20 16:40:44:853
5.329493,-12.952631,-1.910573,0.0,49.845264,24.040016,376.0,NaN,6.048,27.0,228.0,16 / 16,172029,2020-03-20 16:40:45:353
-2.566584,-2.930503,4.098873,0.0,49.845264,24.040016,376.0,NaN,6.048,27.0,228.0,16 / 16,172528,2020-03-20 16:40:45:852
0.612916,-10.649409,3.677494,0.0,49.845264,24.040016,376.0,NaN,6.048,27.0,228.0,16 / 16,173029,2020-03-20 16:40:46:353
1.335965,-15.270219,-2.834735,0.0,49.845264,24.040016,376.0,NaN,6.048,27.0,228.0,16 / 16,173529,2020-03-20 16:40:46:853
0.292093,4.280833,-7.158663,0.0,49.845264,24.040016,376.0,NaN,6.048,27.0,228.0,16 / 16,174028,2020-03-20 16:40:47:352
6.287174,-11.271901,-2.954445,0.0,49.845264,24.040016,376.0,NaN,6.048,27.0,228.0,16 / 16,174528,2020-03-20 16:40:47:852
-2.173935,-0.545878,0.402226,0.0,49.845264,24.040016,376.0,NaN,6.048,27.0,228.0,16 / 16,175029,2020-03-20 16:40:48:353
3.112462,-6.698976,-1.934515,0.0,49.845264,24.040016,376.0,NaN,6.048,27.0,228.0,16 / 16,175528,2020-03-20 16:40:48:852
0.794875,-5.904101,5.396531,0.0,49.845264,24.040016,376.0,NaN,6.048,27.0,228.0,16 / 16,176028,2020-03-20 16:40:49:352
2.738967,-8.911219,0.608127,0.0,49.845264,24.040016,376.0,NaN,6.048,27.0,228.0,16 / 16,176528,2020-03-20 16:40:49:852
0.641646,-4.34787,4.975151,0.0,49.845264,24.040016,376.0,NaN,6.048,27.0,228.0,16 / 16,177029,2020-03-20 16:40:50:353
1.359907,-7.508216,-8.777143,0.0,49.845264,24.040016,376.0,NaN,6.048,27.0,228.0,16 / 16,177528,2020-03-20 16:40:50:852
-5.803545,-21.41374,-1.70946,0.0,49.845264,24.040016,376.0,NaN,6.048,27.0,228.0,16 / 16,178028,2020-03-20 16:40:51:352
-9.160215,11.310209,-2.705448,0.0,49.845264,24.040016,376.0,NaN,6.048,27.0,228.0,16 / 16,178529,2020-03-20 16:40:51:853
-6.330269,-15.126566,-16.917427,0.0,49.845264,24.040016,376.0,NaN,6.048,27.0,228.0,16 / 16,179029,2020-03-20 16:40:52:353
-4.462792,-20.432117,-10.927136,0.0,49.845264,24.040016,376.0,NaN,6.048,27.0,228.0,16 / 16,179528,2020-03-20 16:40:52:852
1.958457,-8.987833,-3.801992,0.0,49.845264,24.040016,376.0,NaN,6.048,27.0,228.0,16 / 16,180029,2020-03-20 16:40:53:353
1.968034,-0.723049,-7.852981,0.0,49.845264,24.040016,376.0,NaN,6.048,27.0,228.0,16 / 16,180528,2020-03-20 16:40:53:852
4.644751,-8.777143,-2.590526,0.0,49.845264,24.040016,376.0,NaN,6.048,27.0,228.0,16 / 16,181028,2020-03-20 16:40:54:352
-3.452439,-1.690306,3.830723,0.0,49.845264,24.040016,376.0,NaN,6.048,27.0,228.0,16 / 16,181528,2020-03-20 16:40:54:852
1.431733,-5.889736,-1.766921,0.0,49.845264,24.040016,376.0,NaN,6.048,27.0,228.0,16 / 16,182028,2020-03-20 16:40:55:352
8.896853,-6.938396,2.274492,0.0,49.845264,24.040016,376.0,NaN,6.048,27.0,228.0,16 / 16,182529,2020-03-20 16:40:55:853
5.770026,-17.099388,-10.160992,0.0,49.845264,24.040016,376.0,NaN,6.048,27.0,228.0,16 / 16,183029,2020-03-20 16:40:56:353
-7.733271,-19.785683,1.072602,0.0,49.845264,24.040016,376.0,NaN,6.048,27.0,228.0,16 / 16,183529,2020-03-20 16:40:56:853
-1.345541,2.341529,23.894133,0.0,49.845264,24.040016,376.0,NaN,6.048,27.0,228.0,16 / 16,184028,2020-03-20 16:40:57:352
-1.867477,-18.947712,-2.710236,0.0,49.845264,24.040016,376.0,NaN,6.048,27.0,228.0,16 / 16,184528,2020-03-20 16:40:57:852
-0.866701,3.016694,10.879252,0.0,49.845264,24.040016,376.0,NaN,6.048,27.0,228.0,16 / 16,185028,2020-03-20 16:40:58:352
-1.604115,-17.870321,-5.93762,0.0,49.845264,24.040016,376.0,NaN,6.048,27.0,228.0,16 / 16,185528,2020-03-20 16:40:58:852
-2.777274,-5.39653,-3.117251,0.0,49.845264,24.040016,376.0,NaN,6.048,27.0,228.0,16 / 16,186029,2020-03-20 16:40:59:353
1.522712,-7.302315,-2.595315,0.0,49.845264,24.040016,376.0,NaN,6.048,27.0,228.0,16 / 16,186529,2020-03-20 16:40:59:853
-3.145981,-1.082179,4.908114,0.0,49.845264,24.040016,376.0,NaN,6.048,27.0,228.0,16 / 16,187028,2020-03-20 16:41:00:352
-0.6608,-5.856217,1.752556,0.0,49.845264,24.040016,376.0,NaN,6.048,27.0,228.0,16 / 16,187528,2020-03-20 16:41:00:852
5.66947,-6.335057,0.181959,0.0,49.845264,24.040016,376.0,NaN,6.048,27.0,228.0,16 / 16,188028,2020-03-20 16:41:01:352
2.667141,-8.408437,0.622492,0.0,49.845264,24.040016,376.0,NaN,6.048,27.0,228.0,16 / 16,188529,2020-03-20 16:41:01:853
1.134852,-4.328717,3.993528,0.0,49.845264,24.040016,376.0,NaN,6.048,27.0,228.0,16 / 16,189028,2020-03-20 16:41:02:352
3.409343,-8.719683,-5.181052,0.0,49.845264,24.040016,376.0,NaN,6.048,27.0,228.0,16 / 16,189528,2020-03-20 16:41:02:852
-6.220136,-21.475988,-1.49877,0.0,49.845264,24.040016,376.0,NaN,6.048,27.0,228.0,16 / 16,190028,2020-03-20 16:41:03:352
-5.875371,10.7356,1.910573,0.0,49.845264,24.040016,376.0,NaN,6.048,27.0,228.0,16 / 16,190529,2020-03-20 16:41:03:853
-8.882488,-13.488933,-16.558298,0.0,49.845264,24.040016,376.0,NaN,6.048,27.0,228.0,16 / 16,191029,2020-03-20 16:41:04:353
-2.145205,-16.970102,-7.268796,0.0,49.845264,24.040016,376.0,NaN,6.048,27.0,228.0,16 / 16,191528,2020-03-20 16:41:04:852
-0.847547,-10.156203,-5.329493,0.0,49.845264,24.040016,376.0,NaN,6.048,27.0,228.0,16 / 16,192028,2020-03-20 16:41:05:352
-2.408567,-12.425907,-7.560889,0.0,49.845264,24.040016,376.0,NaN,6.048,27.0,228.0,16 / 16,192528,2020-03-20 16:41:05:852
3.260903,-7.718906,-3.265691,0.0,49.845264,24.040016,376.0,NaN,6.048,27.0,228.0,16 / 16,193028,2020-03-20 16:41:06:352
-2.662352,-0.100556,5.410896,0.0,49.845264,24.040016,376.0,NaN,6.048,27.0,228.0,16 / 16,193529,2020-03-20 16:41:06:853
-0.536301,-6.665457,-0.56982,0.0,49.845264,24.040016,376.0,NaN,6.048,27.0,228.0,16 / 16,194029,2020-03-20 16:41:07:353
7.40766,-5.717354,4.639963,0.0,49.845264,24.040016,376.0,NaN,6.048,27.0,228.0,16 / 16,194528,2020-03-20 16:41:07:852
7.25922,-30.391996,1.508347,0.0,49.845264,24.040016,376.0,NaN,6.048,27.0,228.0,16 / 16,195028,2020-03-20 16:41:08:352
-7.153875,-17.472883,7.383718,0.0,49.845264,24.040016,376.0,NaN,6.048,27.0,228.0,16 / 16,195529,2020-03-20 16:41:08:853
-1.043872,-39.188293,-36.966473,0.0,49.845264,24.040016,376.0,NaN,6.048,27.0,228.0,16 / 16,196029,2020-03-20 16:41:09:353
-6.856993,-20.69548,-1.580173,0.0,49.845264,24.040016,376.0,NaN,6.048,27.0,228.0,16 / 16,196528,2020-03-20 16:41:09:852
-2.777274,6.536171,18.53112,0.0,49.845264,24.040016,376.0,NaN,6.048,27.0,228.0,16 / 16,197028,2020-03-20 16:41:10:352
2.327164,-12.665327,-0.497994,0.0,49.845264,24.040016,376.0,NaN,6.048,27.0,228.0,16 / 16,197529,2020-03-20 16:41:10:853
-3.380613,-20.54225,-9.232041,0.0,49.845264,24.040016,376.0,NaN,6.048,27.0,228.0,16 / 16,198028,2020-03-20 16:41:11:352
0.464475,-10.31901,-4.94642,0.0,49.845264,24.040016,376.0,NaN,6.048,27.0,228.0,16 / 16,198528,2020-03-20 16:41:11:852
-3.65834,-1.838747,4.55856,0.0,49.845264,24.040016,376.0,NaN,6.048,27.0,228.0,16 / 16,199029,2020-03-20 16:41:12:353
-1.623269,-8.058882,-1.163582,0.0,49.845264,24.040016,376.0,NaN,6.048,27.0,228.0,16 / 16,199528,2020-03-20 16:41:12:852
7.671023,-8.087613,1.450886,0.0,49.845264,24.040016,376.0,NaN,6.048,27.0,228.0,16 / 16,200029,2020-03-20 16:41:13:353
1.958457,-7.220912,-0.081403,0.0,49.845264,24.040016,376.0,NaN,6.048,27.0,228.0,16 / 16,200529,2020-03-20 16:41:13:853
2.662352,-7.120356,4.984728,0.0,49.845264,24.040016,376.0,NaN,6.048,27.0,228.0,16 / 16,201028,2020-03-20 16:41:14:352
5.272033,-11.812991,-7.718906,0.0,49.845264,24.040016,376.0,NaN,6.048,27.0,228.0,16 / 16,201528,2020-03-20 16:41:14:852
-7.685387,-18.162415,4.955998,0.0,49.845264,24.040016,376.0,NaN,6.048,27.0,228.0,16 / 16,202028,2020-03-20 16:41:15:352
1.877054,-38.254555,-24.301147,0.0,49.845264,24.040016,376.0,NaN,6.048,27.0,228.0,16 / 16,202529,2020-03-20 16:41:15:853
10.002975,-11.33894,3.940856,0.0,49.845264,24.040016,376.0,NaN,6.048,27.0,228.0,16 / 16,203029,2020-03-20 16:41:16:353
-2.87783,-9.313444,-4.582502,0.0,49.845264,24.040016,376.0,NaN,6.048,27.0,228.0,16 / 16,203528,2020-03-20 16:41:16:852
2.537854,-8.27436,-0.636858,0.0,49.845264,24.040016,376.0,NaN,6.048,27.0,228.0,16 / 16,204028,2020-03-20 16:41:17:352
-3.131616,-16.749836,-14.920665,0.0,49.845264,24.040016,376.0,NaN,6.048,27.0,228.0,16 / 16,204529,2020-03-20 16:41:17:853
-1.441309,-9.591172,-2.695871,0.0,49.845264,24.040016,376.0,NaN,6.048,27.0,228.0,16 / 16,205028,2020-03-20 16:41:18:352
-2.873042,-2.806004,4.448427,0.0,49.845264,24.040016,376.0,NaN,6.048,27.0,228.0,16 / 16,205528,2020-03-20 16:41:18:852
-0.612916,-5.961562,-0.948104,0.0,49.845264,24.040016,376.0,NaN,6.048,27.0,228.0,0 / 0,206029,2020-03-20 16:41:19:353
1.92015,-12.919112,-2.245761,0.0,49.845264,24.040016,376.0,NaN,6.048,27.0,228.0,0 / 0,206528,2020-03-20 16:41:19:852
-0.857124,-4.007893,8.475474,0.0,49.845264,24.040016,376.0,NaN,6.048,27.0,228.0,0 / 2,207028,2020-03-20 16:41:20:352
3.567361,-17.492037,-1.005565,0.0,49.845264,24.040016,376.0,NaN,6.048,27.0,228.0,0 / 2,207528,2020-03-20 16:41:20:852
-2.408567,-8.135497,-4.252102,0.0,49.845264,24.040016,376.0,NaN,6.048,27.0,228.0,0 / 5,208029,2020-03-20 16:41:21:353
4.55856,-8.307879,-3.351882,0.0,49.845264,24.040016,376.0,NaN,6.048,27.0,228.0,0 / 5,208529,2020-03-20 16:41:21:853
0.603339,-2.786851,-7.302315,0.0,49.845264,24.040016,376.0,NaN,6.048,27.0,228.0,0 / 11,209028,2020-03-20 16:41:22:352
6.009446,-10.951078,-5.473145,0.0,49.845264,24.040016,376.0,NaN,6.048,27.0,228.0,0 / 11,209528,2020-03-20 16:41:22:852
-0.617704,-1.613692,0.445322,0.0,49.845264,24.040016,376.0,NaN,6.048,27.0,228.0,0 / 13,210029,2020-03-20 16:41:23:353
2.762909,-7.259219,-1.096544,0.0,49.84506,24.038612,336.0,NaN,9.828,25.0,332.0,13 / 15,210528,2020-03-20 16:41:23:852
3.165135,-6.555324,5.525818,0.0,49.84506,24.038612,336.0,NaN,9.828,25.0,332.0,13 / 15,211028,2020-03-20 16:41:24:352
5.88016,-18.042704,0.823605,0.0,49.84506,24.038612,336.0,NaN,9.828,25.0,332.0,13 / 15,211529,2020-03-20 16:41:24:853
-5.568913,-19.895817,2.442086,0.0,49.84506,24.038612,336.0,NaN,9.828,25.0,332.0,13 / 15,212028,2020-03-20 16:41:25:352
-1.47004,-37.09576,6.722919,0.0,49.84506,24.038612,336.0,NaN,9.828,25.0,332.0,13 / 15,212528,2020-03-20 16:41:25:852
-6.919243,-21.447258,-0.924162,0.0,49.84506,24.038612,336.0,NaN,9.828,25.0,332.0,13 / 15,213029,2020-03-20 16:41:26:353
-3.706224,9.854534,12.325351,0.0,49.84506,24.038612,336.0,NaN,9.828,25.0,332.0,13 / 15,213528,2020-03-20 16:41:26:852
-1.723825,-13.292608,-11.075577,0.0,49.84506,24.038612,336.0,NaN,9.828,25.0,332.0,13 / 15,214028,2020-03-20 16:41:27:352
-1.671153,-19.934124,-10.692505,0.0,49.84506,24.038612,336.0,NaN,9.828,25.0,332.0,13 / 15,214529,2020-03-20 16:41:27:853
0.804452,-9.251195,-0.311246,0.0,49.84506,24.038612,336.0,NaN,9.828,25.0,332.0,13 / 15,215028,2020-03-20 16:41:28:352
-4.730942,-2.164358,4.994305,0.0,49.84506,24.038612,336.0,NaN,9.828,25.0,332.0,13 / 15,215528,2020-03-20 16:41:28:852
-3.20823,-4.989516,-2.537854,0.0,49.84506,24.038612,336.0,NaN,9.828,25.0,332.0,13 / 15,216029,2020-03-20 16:41:29:353
2.379837,-12.947843,-2.786851,0.0,49.84506,24.038612,336.0,NaN,9.828,25.0,332.0,13 / 15,216529,2020-03-20 16:41:29:853
0.90022,-3.950433,-2.695871,0.0,49.84506,24.038612,336.0,NaN,9.828,25.0,332.0,13 / 15,217029,2020-03-20 16:41:30:353
2.662352,-10.821792,-1.292869,0.0,49.84506,24.038612,336.0,NaN,9.828,25.0,332.0,13 / 15,217529,2020-03-20 16:41:30:853
-7.019799,-1.446098,9.835381,0.0,49.84506,24.038612,336.0,NaN,9.828,25.0,332.0,13 / 15,218028,2020-03-20 16:41:31:352
-4.165911,-18.689138,6.272809,0.0,49.84506,24.038612,336.0,NaN,9.828,25.0,332.0,13 / 15,218528,2020-03-20 16:41:31:852
-1.570596,-12.871228,18.071434,0.0,49.84506,24.038612,336.0,NaN,9.828,25.0,332.0,13 / 15,219029,2020-03-20 16:41:32:353
-0.861913,-14.408306,-8.475474,0.0,49.84506,24.038612,336.0,NaN,9.828,25.0,332.0,13 / 15,219528,2020-03-20 16:41:32:852
-6.17704,-15.591042,-4.3766,0.0,49.84506,24.038612,336.0,NaN,9.828,25.0,332.0,13 / 15,220028,2020-03-20 16:41:33:352
4.122815,-10.496181,-7.354987,0.0,49.84506,24.038612,336.0,NaN,9.828,25.0,332.0,13 / 15,220529,2020-03-20 16:41:33:853
-2.99754,-5.803545,-7.187393,0.0,49.84506,24.038612,336.0,NaN,9.828,25.0,332.0,13 / 15,221029,2020-03-20 16:41:34:353
5.674258,-11.15698,-1.201889,0.0,49.84506,24.038612,336.0,NaN,9.828,25.0,332.0,13 / 15,221529,2020-03-20 16:41:34:853
-0.775721,-2.346318,-0.694318,0.0,49.84506,24.038612,336.0,NaN,9.828,25.0,332.0,13 / 15,222028,2020-03-20 16:41:35:352
0.272939,-8.073248,0.3304,0.0,49.84506,24.038612,336.0,NaN,9.828,25.0,332.0,13 / 15,222528,2020-03-20 16:41:35:852
-1.431733,-2.566584,4.271256,0.0,49.84506,24.038612,336.0,NaN,9.828,25.0,332.0,13 / 15,223029,2020-03-20 16:41:36:353
-1.374272,-10.342952,-1.403002,0.0,49.84506,24.038612,336.0,NaN,9.828,25.0,332.0,13 / 15,223528,2020-03-20 16:41:36:852
-8.738836,-20.345926,-0.636858,0.0,49.84506,24.038612,336.0,NaN,9.828,25.0,332.0,13 / 15,224028,2020-03-20 16:41:37:352
-11.621455,8.901642,-0.057461,0.0,49.84506,24.038612,336.0,NaN,9.828,25.0,332.0,13 / 15,224529,2020-03-20 16:41:37:853
-5.123591,-19.258959,1.355118,0.0,49.84506,24.038612,336.0,NaN,9.828,25.0,332.0,13 / 15,225029,2020-03-20 16:41:38:353
11.597513,-20.910957,33.03998,0.0,49.84506,24.038612,336.0,NaN,9.828,25.0,332.0,13 / 15,225528,2020-03-20 16:41:38:852
9.730036,-11.420342,1.843535,0.0,49.84506,24.038612,336.0,NaN,9.828,25.0,332.0,13 / 15,226029,2020-03-20 16:41:39:353
-6.512228,-15.80652,-24.660278,0.0,49.84506,24.038612,336.0,NaN,9.828,25.0,332.0,13 / 15,226529,2020-03-20 16:41:39:853
-0.78051,-7.560889,-1.177947,0.0,49.84506,24.038612,336.0,NaN,9.828,25.0,332.0,13 / 15,227028,2020-03-20 16:41:40:352
-2.422932,-1.278504,4.501099,0.0,49.84506,24.038612,336.0,NaN,9.828,25.0,332.0,13 / 15,227529,2020-03-20 16:41:40:853
-3.485957,-6.421249,-0.972046,0.0,49.84506,24.038612,336.0,NaN,9.828,25.0,332.0,13 / 15,228029,2020-03-20 16:41:41:353
7.843405,-12.737153,-3.878607,0.0,49.84506,24.038612,336.0,NaN,9.828,25.0,332.0,13 / 15,228528,2020-03-20 16:41:41:852
-2.542642,-6.114791,0.675165,0.0,49.84506,24.038612,336.0,NaN,9.828,25.0,332.0,13 / 15,229029,2020-03-20 16:41:42:353
1.431733,-15.74427,-4.793192,0.0,49.84506,24.038612,336.0,NaN,9.828,25.0,332.0,13 / 15,229529,2020-03-20 16:41:42:853
1.977611,-7.19697,25.651478,0.0,49.84506,24.038612,336.0,NaN,9.828,25.0,332.0,13 / 15,230028,2020-03-20 16:41:43:352
-13.623008,-18.310854,-28.002583,0.0,49.84506,24.038612,336.0,NaN,9.828,25.0,332.0,13 / 15,230529,2020-03-20 16:41:43:853
-3.112462,-15.935806,-6.344634,0.0,49.84506,24.038612,336.0,NaN,9.828,25.0,332.0,13 / 15,231029,2020-03-20 16:41:44:353
2.877831,-9.639056,-2.130839,0.0,49.84506,24.038612,336.0,NaN,9.828,25.0,332.0,13 / 15,231528,2020-03-20 16:41:44:852
-3.964798,-1.877054,5.075708,0.0,49.84506,24.038612,336.0,NaN,9.828,25.0,332.0,13 / 15,232029,2020-03-20 16:41:45:353
-0.349553,-4.91769,-1.82917,0.0,49.84506,24.038612,336.0,NaN,9.828,25.0,332.0,13 / 15,232529,2020-03-20 16:41:45:853
-3.074155,-1.288081,4.156334,0.0,49.84506,24.038612,336.0,NaN,9.828,25.0,332.0,13 / 15,233028,2020-03-20 16:41:46:352
3.667917,-1.944092,-1.034295,0.0,49.84506,24.038612,336.0,NaN,9.828,25.0,332.0,13 / 15,233528,2020-03-20 16:41:46:852
-0.3304,-5.894524,3.241749,0.0,49.84506,24.038612,336.0,NaN,9.828,25.0,332.0,13 / 15,234029,2020-03-20 16:41:47:353
1.144428,-5.372588,-3.093309,0.0,49.84506,24.038612,336.0,NaN,9.828,25.0,332.0,13 / 15,234529,2020-03-20 16:41:47:853
-3.864241,-20.025103,2.643199,0.0,49.84506,24.038612,336.0,NaN,9.828,25.0,332.0,13 / 15,235028,2020-03-20 16:41:48:352
1.091756,-30.794222,-12.569559,0.0,49.84506,24.038612,336.0,NaN,9.828,25.0,332.0,13 / 15,235528,2020-03-20 16:41:48:852
-3.20823,-18.162415,11.190498,0.0,49.84506,24.038612,336.0,NaN,9.828,25.0,332.0,13 / 15,236028,2020-03-20 16:41:49:352
0.675165,-13.551182,-2.537854,0.0,49.84506,24.038612,336.0,NaN,9.828,25.0,332.0,13 / 15,236528,2020-03-20 16:41:49:852
-9.370906,-22.70182,0.464475,0.0,49.84506,24.038612,336.0,NaN,9.828,25.0,332.0,13 / 15,237029,2020-03-20 16:41:50:353
-7.489063,13.426683,-23.702597,0.0,49.84506,24.038612,336.0,NaN,9.828,25.0,332.0,13 / 15,237528,2020-03-20 16:41:50:852
1.240197,-12.277467,-5.856217,0.0,49.84506,24.038612,336.0,NaN,9.828,25.0,332.0,13 / 15,238028,2020-03-20 16:41:51:352
-2.42772,-18.148048,-12.799402,0.0,49.84506,24.038612,336.0,NaN,9.828,25.0,332.0,13 / 15,238528,2020-03-20 16:41:51:852
-0.612916,-9.375694,-4.529829,0.0,49.84506,24.038612,336.0,NaN,9.828,25.0,332.0,13 / 15,239029,2020-03-20 16:41:52:353
-3.605668,-2.226607,2.662352,0.0,49.84506,24.038612,336.0,NaN,9.828,25.0,332.0,13 / 15,239529,2020-03-20 16:41:52:853
-2.686294,-7.929596,-0.205901,0.0,49.84506,24.038612,336.0,NaN,9.828,25.0,332.0,13 / 15,240028,2020-03-20 16:41:53:352
-3.481169,-19.61809,-0.871489,0.0,49.84506,24.038612,336.0,NaN,9.828,25.0,332.0,13 / 15,240528,2020-03-20 16:41:53:852
-0.92895,-9.14585,1.101333,0.0,49.84506,24.038612,336.0,NaN,9.828,25.0,332.0,13 / 15,241029,2020-03-20 16:41:54:353
-2.542642,-17.099388,-1.613692,0.0,49.84506,24.038612,336.0,NaN,9.828,25.0,332.0,13 / 15,241529,2020-03-20 16:41:54:853
-10.371682,15.562311,-8.532935,0.0,49.84506,24.038612,336.0,NaN,9.828,25.0,332.0,13 / 15,242029,2020-03-20 16:41:55:353
-1.82917,-14.896723,-13.709199,0.0,49.84506,24.038612,336.0,NaN,9.828,25.0,332.0,13 / 15,242529,2020-03-20 16:41:55:853
-2.164358,-18.89504,-6.919243,0.0,49.84506,24.038612,336.0,NaN,9.828,25.0,332.0,13 / 15,243028,2020-03-20 16:41:56:352
0.392649,-9.964667,-2.906561,0.0,49.84506,24.038612,336.0,NaN,9.828,25.0,332.0,13 / 15,243528,2020-03-20 16:41:56:852
-4.036624,-1.92015,5.612009,0.0,49.84506,24.038612,336.0,NaN,9.828,25.0,332.0,13 / 15,244028,2020-03-20 16:41:57:352
-0.579397,-4.721366,0.723049,0.0,49.84506,24.038612,336.0,NaN,9.828,25.0,332.0,13 / 15,244529,2020-03-20 16:41:57:853
-2.959233,-1.01993,5.018247,0.0,49.84506,24.038612,336.0,NaN,9.828,25.0,332.0,13 / 15,245028,2020-03-20 16:41:58:352
0.42138,-7.230489,-0.076614,0.0,49.84506,24.038612,336.0,NaN,9.828,25.0,332.0,13 / 15,245528,2020-03-20 16:41:58:852
3.524265,-9.849746,2.94008,0.0,49.84506,24.038612,336.0,NaN,9.828,25.0,332.0,13 / 15,246029,2020-03-20 16:41:59:353
4.194642,-27.107153,7.431602,0.0,49.84506,24.038612,336.0,NaN,9.828,25.0,332.0,13 / 15,246529,2020-03-20 16:41:59:853
-4.49631,-14.834474,3.289633,0.0,49.84506,24.038612,336.0,NaN,9.828,25.0,332.0,13 / 15,247028,2020-03-20 16:42:00:352
-5.6982,-24.425646,-18.98602,0.0,49.84506,24.038612,336.0,NaN,9.828,25.0,332.0,13 / 15,247528,2020-03-20 16:42:00:852
6.181829,-10.711658,1.546654,0.0,49.84506,24.038612,336.0,NaN,9.828,25.0,332.0,13 / 15,248029,2020-03-20 16:42:01:353
-4.501099,-10.711658,-6.402095,0.0,49.84506,24.038612,336.0,NaN,9.828,25.0,332.0,13 / 15,248528,2020-03-20 16:42:01:852
4.462792,-12.071565,1.388637,0.0,49.84506,24.038612,336.0,NaN,9.828,25.0,332.0,13 / 15,249028,2020-03-20 16:42:02:352
-8.844181,-23.99469,-32.680855,0.0,49.84506,24.038612,336.0,NaN,9.828,25.0,332.0,13 / 15,249529,2020-03-20 16:42:02:853
0.47884,-8.78672,-0.459687,0.0,49.84506,24.038612,336.0,NaN,9.828,25.0,332.0,13 / 15,250028,2020-03-20 16:42:03:352
-1.968034,-1.000776,5.774815,0.0,49.84506,24.038612,336.0,NaN,9.828,25.0,332.0,13 / 15,250529,2020-03-20 16:42:03:853
-2.432509,-5.262455,-3.907337,0.0,49.84506,24.038612,336.0,NaN,9.828,25.0,332.0,13 / 15,251029,2020-03-20 16:42:04:353
2.336741,-13.249513,-2.37026,0.0,49.84506,24.038612,336.0,NaN,9.828,25.0,332.0,13 / 15,251528,2020-03-20 16:42:04:852
-1.355118,-4.932055,12.196063,0.0,49.84506,24.038612,336.0,NaN,9.828,25.0,332.0,13 / 15,252029,2020-03-20 16:42:05:353
4.582502,-14.207192,-6.406883,0.0,49.84506,24.038612,336.0,NaN,9.828,25.0,332.0,13 / 15,252529,2020-03-20 16:42:05:853
-9.414001,-19.479225,8.465898,0.0,49.84506,24.038612,336.0,NaN,9.828,25.0,332.0,13 / 15,253028,2020-03-20 16:42:06:352
2.006341,-16.567875,-3.801992,0.0,49.84506,24.038612,336.0,NaN,9.828,25.0,332.0,13 / 15,253529,2020-03-20 16:42:06:853
-0.148441,-2.456451,-8.848969,0.0,49.84506,24.038612,336.0,NaN,9.828,25.0,332.0,13 / 15,254028,2020-03-20 16:42:07:352
6.100426,-11.362882,-6.277597,0.0,49.84506,24.038612,336.0,NaN,9.828,25.0,332.0,13 / 15,254528,2020-03-20 16:42:07:852
-1.517924,-4.065354,-8.441956,0.0,49.84506,24.038612,336.0,NaN,9.828,25.0,332.0,13 / 15,255029,2020-03-20 16:42:08:353
3.29921,-7.153875,-0.632069,0.0,49.84506,24.038612,336.0,NaN,9.828,25.0,332.0,13 / 15,255529,2020-03-20 16:42:08:853
0.665588,-3.193865,4.52983,0.0,49.84506,24.038612,336.0,NaN,9.828,25.0,332.0,13 / 15,256028,2020-03-20 16:42:09:352
-0.919373,-6.397307,-1.824382,0.0,49.84506,24.038612,336.0,NaN,9.828,25.0,332.0,13 / 15,256528,2020-03-20 16:42:09:852
1.517924,-14.365211,-2.762909,0.0,49.84506,24.038612,336.0,NaN,9.828,25.0,332.0,13 / 15,257029,2020-03-20 16:42:10:353
-9.868899,-20.752941,7.752425,0.0,49.84506,24.038612,336.0,NaN,9.828,25.0,332.0,13 / 15,257528,2020-03-20 16:42:10:852
5.827487,-7.235277,1.546654,0.0,49.84506,24.038612,336.0,NaN,9.828,25.0,332.0,13 / 15,258029,2020-03-20 16:42:11:353
11.540052,-19.378668,-10.510546,0.0,49.84506,24.038612,336.0,NaN,9.828,25.0,332.0,13 / 15,258529,2020-03-20 16:42:11:853
-5.93762,-19.04827,3.160346,0.0,49.84506,24.038612,336.0,NaN,9.828,25.0,332.0,13 / 15,259028,2020-03-20 16:42:12:352
2.106898,-27.423185,13.125013,0.0,49.84506,24.038612,336.0,NaN,9.828,25.0,332.0,13 / 15,259528,2020-03-20 16:42:12:852
9.624691,-11.760319,3.557784,0.0,49.84506,24.038612,336.0,NaN,9.828,25.0,332.0,13 / 15,260029,2020-03-20 16:42:13:353
-1.125275,-24.995466,-27.839775,0.0,49.84506,24.038612,336.0,NaN,9.828,25.0,332.0,13 / 15,260529,2020-03-20 16:42:13:853
-0.248997,-10.682928,-5.6982,0.0,49.84506,24.038612,336.0,NaN,9.828,25.0,332.0,13 / 15,261028,2020-03-20 16:42:14:352
-4.472368,-2.652775,5.832276,0.0,49.84506,24.038612,336.0,NaN,9.828,25.0,332.0,13 / 15,261528,2020-03-20 16:42:14:852
1.786075,-6.991069,-0.038307,0.0,49.84506,24.038612,336.0,NaN,9.828,25.0,332.0,13 / 15,262029,2020-03-20 16:42:15:353
-1.096544,-6.402095,3.050213,0.0,49.84506,24.038612,336.0,NaN,9.828,25.0,332.0,13 / 15,262529,2020-03-20 16:42:15:853
4.774039,-11.812991,-8.116343,0.0,49.84506,24.038612,336.0,NaN,9.828,25.0,332.0,13 / 15,263029,2020-03-20 16:42:16:353
-1.766921,-4.060566,4.903325,0.0,49.84506,24.038612,336.0,NaN,9.828,25.0,332.0,13 / 15,263528,2020-03-20 16:42:16:852
-1.987187,-6.143522,0.6608,0.0,49.84506,24.038612,336.0,NaN,9.828,25.0,332.0,13 / 15,264028,2020-03-20 16:42:17:352
-2.691083,-17.257406,-2.140416,0.0,49.84506,24.038612,336.0,NaN,9.828,25.0,332.0,13 / 15,264528,2020-03-20 16:42:17:852
-9.02614,11.889606,-2.269703,0.0,49.84506,24.038612,336.0,NaN,9.828,25.0,332.0,13 / 15,265029,2020-03-20 16:42:18:353
6.397307,-14.441825,-4.501099,0.0,49.84506,24.038612,336.0,NaN,9.828,25.0,332.0,13 / 15,265528,2020-03-20 16:42:18:852
2.686294,-8.710106,-6.282385,0.0,49.84506,24.038612,336.0,NaN,9.828,25.0,332.0,13 / 15,266028,2020-03-20 16:42:19:352
2.652776,-9.318233,-7.086837,0.0,49.84506,24.038612,336.0,NaN,9.828,25.0,332.0,0 / 0,266529,2020-03-20 16:42:19:853
-3.026271,-2.461239,3.643975,0.0,49.84506,24.038612,336.0,NaN,9.828,25.0,332.0,0 / 0,267028,2020-03-20 16:42:20:352
0.9912,-7.029376,0.804452,0.0,49.84506,24.038612,336.0,NaN,9.828,25.0,332.0,0 / 0,267528,2020-03-20 16:42:20:852
-0.761356,-3.696647,-1.422156,0.0,49.84506,24.038612,336.0,NaN,9.828,25.0,332.0,6 / 6,268029,2020-03-20 16:42:21:353
2.437297,-7.589619,-0.114922,0.0,49.84506,24.038612,336.0,NaN,9.828,25.0,332.0,6 / 6,268528,2020-03-20 16:42:21:852
-0.579397,-3.615245,4.64954,0.0,49.84506,24.038612,336.0,NaN,9.828,25.0,332.0,12 / 12,269029,2020-03-20 16:42:22:353
1.647211,-5.702988,-7.656657,0.0,49.84506,24.038612,336.0,NaN,9.828,25.0,332.0,12 / 12,269529,2020-03-20 16:42:22:853
-2.025495,-19.364304,-1.613692,0.0,49.84506,24.038612,371.0,NaN,2.556,25.0,0.0,17 / 17,270029,2020-03-20 16:42:23:353
-3.074155,8.178593,6.785168,0.0,49.84397,24.038763,371.0,NaN,2.556,12.0,0.0,17 / 17,270529,2020-03-20 16:42:23:853
3.021483,-16.936583,-1.474828,0.0,49.84397,24.038763,371.0,NaN,2.556,12.0,0.0,18 / 18,271028,2020-03-20 16:42:24:352
-1.632845,-11.822568,-6.282385,0.0,49.84397,24.038763,371.0,NaN,2.556,12.0,0.0,18 / 18,271528,2020-03-20 16:42:24:852
6.248867,-18.095375,-3.892972,0.0,49.84397,24.038763,371.0,NaN,2.556,12.0,0.0,18 / 18,272029,2020-03-20 16:42:25:353
-1.403002,-3.165135,-8.039729,0.0,49.84397,24.038763,371.0,NaN,2.556,12.0,0.0,18 / 18,272529,2020-03-20 16:42:25:853
6.263232,-10.175357,-0.895431,0.0,49.84397,24.038763,371.0,NaN,2.556,12.0,0.0,18 / 18,273029,2020-03-20 16:42:26:353
-1.297657,-6.354211,-2.552219,0.0,49.84397,24.038763,371.0,NaN,2.556,12.0,0.0,18 / 18,273528,2020-03-20 16:42:26:852
0.215478,-10.740389,3.730166,0.0,49.84397,24.038763,371.0,NaN,2.556,12.0,0.0,18 / 18,274028,2020-03-20 16:42:27:352
-2.580949,-1.163582,5.64074,0.0,49.84397,24.038763,371.0,NaN,2.556,12.0,0.0,18 / 18,274529,2020-03-20 16:42:27:853
-1.996764,-9.390059,0.047884,0.0,49.84397,24.038763,371.0,NaN,2.556,12.0,0.0,18 / 18,275028,2020-03-20 16:42:28:352
5.003882,-10.204087,2.561796,0.0,49.84397,24.038763,371.0,NaN,2.556,12.0,0.0,18 / 18,275528,2020-03-20 16:42:28:852
5.396531,-30.578745,6.191406,0.0,49.84397,24.038763,371.0,NaN,2.556,12.0,0.0,18 / 18,276029,2020-03-20 16:42:29:353
0.019154,-1.628057,5.602432,0.0,49.84397,24.038763,371.0,NaN,2.556,12.0,0.0,18 / 18,276528,2020-03-20 16:42:29:852
-2.710236,-8.590396,-1.915361,0.0,49.84397,24.038763,371.0,NaN,2.556,12.0,0.0,18 / 18,277029,2020-03-20 16:42:30:353
3.438074,-12.947843,-1.120486,0.0,49.84397,24.038763,371.0,NaN,2.556,12.0,0.0,18 / 18,277529,2020-03-20 16:42:30:853
-6.713341,-9.916783,12.492945,0.0,49.84397,24.038763,371.0,NaN,2.556,12.0,0.0,18 / 18,278029,2020-03-20 16:42:31:353
5.315128,-14.542381,-5.291186,0.0,49.84397,24.038763,371.0,NaN,2.556,12.0,0.0,18 / 18,278528,2020-03-20 16:42:31:852
-0.746991,-5.056554,-8.614338,0.0,49.84397,24.038763,371.0,NaN,2.556,12.0,0.0,18 / 18,279028,2020-03-20 16:42:32:352
6.679823,-10.754754,-4.113238,0.0,49.84397,24.038763,371.0,NaN,2.556,12.0,0.0,18 / 18,279529,2020-03-20 16:42:32:853
0.608127,-5.736507,-5.722142,0.0,49.84397,24.038763,371.0,NaN,2.556,12.0,0.0,18 / 18,280029,2020-03-20 16:42:33:353
5.655105,-10.635044,2.504335,0.0,49.84397,24.038763,371.0,NaN,2.556,12.0,0.0,18 / 18,280528,2020-03-20 16:42:33:852
-4.209007,-15.217546,-16.357185,0.0,49.84397,24.038763,371.0,NaN,2.556,12.0,0.0,18 / 18,281028,2020-03-20 16:42:34:352
-1.374272,-9.595961,-1.005565,0.0,49.84397,24.038763,371.0,NaN,2.556,12.0,0.0,18 / 18,281529,2020-03-20 16:42:34:853
-1.484405,-2.48997,4.19943,0.0,49.84397,24.038763,371.0,NaN,2.556,12.0,0.0,18 / 18,282029,2020-03-20 16:42:35:353
0.124498,-7.991845,-4.094085,0.0,49.84397,24.038763,371.0,NaN,2.556,12.0,0.0,18 / 18,282528,2020-03-20 16:42:35:852
4.276045,-11.401189,-0.962469,0.0,49.84397,24.038763,371.0,NaN,2.556,12.0,0.0,18 / 18,283028,2020-03-20 16:42:36:352
-8.719683,-15.241488,9.299079,0.0,49.84397,24.038763,371.0,NaN,2.556,12.0,0.0,18 / 18,283529,2020-03-20 16:42:36:853
-2.42772,-15.078682,0.617704,0.0,49.84397,24.038763,371.0,NaN,2.556,12.0,0.0,18 / 18,284028,2020-03-20 16:42:37:352
6.019023,-25.70415,1.580173,0.0,49.84397,24.038763,371.0,NaN,2.556,12.0,0.0,18 / 18,284528,2020-03-20 16:42:37:852
-7.934384,-20.178331,5.612009,0.0,49.84397,24.038763,371.0,NaN,2.556,12.0,0.0,18 / 18,285029,2020-03-20 16:42:38:353
3.993528,-2.37026,26.044127,0.0,49.84397,24.038763,371.0,NaN,2.556,12.0,0.0,18 / 18,285528,2020-03-20 16:42:38:852
-2.461239,-12.689269,-14.312538,0.0,49.84397,24.038763,371.0,NaN,2.556,12.0,0.0,18 / 18,286028,2020-03-20 16:42:39:352
-0.483629,-16.371552,-16.898275,0.0,49.84397,24.038763,371.0,NaN,2.556,12.0,0.0,18 / 18,286529,2020-03-20 16:42:39:853
-1.656788,-10.122684,-3.596091,0.0,49.84397,24.038763,371.0,NaN,2.556,12.0,0.0,18 / 18,287028,2020-03-20 16:42:40:352
-3.845088,-1.340753,4.797981,0.0,49.84397,24.038763,371.0,NaN,2.556,12.0,0.0,18 / 18,287528,2020-03-20 16:42:40:852
0.105345,-6.004657,-2.269703,0.0,49.84397,24.038763,371.0,NaN,2.556,12.0,0.0,18 / 18,288028,2020-03-20 16:42:41:352
-2.561796,-0.761356,3.53863,0.0,49.84397,24.038763,371.0,NaN,2.556,12.0,0.0,18 / 18,288529,2020-03-20 16:42:41:853
1.987187,-6.770802,0.502782,0.0,49.84397,24.038763,371.0,NaN,2.556,12.0,0.0,18 / 18,289029,2020-03-20 16:42:42:353
3.490746,-6.244078,3.715801,0.0,49.84397,24.038763,371.0,NaN,2.556,12.0,0.0,18 / 18,289528,2020-03-20 16:42:42:852
1.024718,-10.055647,-0.521936,0.0,49.84397,24.038763,371.0,NaN,2.556,12.0,0.0,18 / 18,290028,2020-03-20 16:42:43:352
-5.947197,-22.893356,0.071826,0.0,49.84397,24.038763,371.0,NaN,2.556,12.0,0.0,18 / 18,290529,2020-03-20 16:42:43:853
-8.264784,19.713858,-18.464083,0.0,49.84397,24.038763,371.0,NaN,2.556,12.0,0.0,18 / 18,291028,2020-03-20 16:42:44:352
4.912902,-15.179238,-4.563348,0.0,49.84397,24.038763,371.0,NaN,2.556,12.0,0.0,18 / 18,291528,2020-03-20 16:42:44:852
0.086191,-7.187393,-4.802768,0.0,49.84397,24.038763,371.0,NaN,2.556,12.0,0.0,18 / 18,292029,2020-03-20 16:42:45:353
5.779603,-16.749836,-3.596091,0.0,49.84397,24.038763,371.0,NaN,2.556,12.0,0.0,18 / 18,292529,2020-03-20 16:42:45:853
-3.29921,-0.737414,-5.233725,0.0,49.84397,24.038763,371.0,NaN,2.556,12.0,0.0,18 / 18,293029,2020-03-20 16:42:46:353
5.248091,-11.243171,-1.225831,0.0,49.84397,24.038763,371.0,NaN,2.556,12.0,0.0,18 / 18,293529,2020-03-20 16:42:46:853
-2.782062,-1.805228,2.475605,0.0,49.84397,24.038763,371.0,NaN,2.556,12.0,0.0,18 / 18,294028,2020-03-20 16:42:47:352
0.823605,-6.928819,2.619257,0.0,49.84397,24.038763,371.0,NaN,2.556,12.0,0.0,18 / 18,294529,2020-03-20 16:42:47:853
2.75812,-6.560112,3.816358,0.0,49.84397,24.038763,371.0,NaN,2.556,12.0,0.0,18 / 18,295029,2020-03-20 16:42:48:353
6.876148,-16.472107,0.952892,0.0,49.84397,24.038763,371.0,NaN,2.556,12.0,0.0,18 / 18,295529,2020-03-20 16:42:48:853
-9.150639,-19.177555,-0.009577,0.0,49.84397,24.038763,371.0,NaN,2.556,12.0,0.0,18 / 18,296028,2020-03-20 16:42:49:352
3.093309,-9.083601,-3.098097,0.0,49.84397,24.038763,371.0,NaN,2.556,12.0,0.0,18 / 18,296528,2020-03-20 16:42:49:852
-0.354342,-16.70674,-1.403002,0.0,49.84397,24.038763,371.0,NaN,2.556,12.0,0.0,18 / 18,297029,2020-03-20 16:42:50:353
-14.537593,13.215993,-18.392258,0.0,49.84397,24.038763,371.0,NaN,2.556,12.0,0.0,18 / 18,297529,2020-03-20 16:42:50:853
3.294422,-12.780249,-4.668693,0.0,49.84397,24.038763,371.0,NaN,2.556,12.0,0.0,18 / 18,298028,2020-03-20 16:42:51:352
-2.422932,-18.741812,-17.123331,0.0,49.84397,24.038763,371.0,NaN,2.556,12.0,0.0,18 / 18,298528,2020-03-20 16:42:51:852
0.363919,-9.945514,-2.27928,0.0,49.84397,24.038763,371.0,NaN,2.556,12.0,0.0,18 / 18,299029,2020-03-20 16:42:52:353
-4.841076,-1.312023,2.901773,0.0,49.84397,24.038763,371.0,NaN,2.556,12.0,0.0,18 / 18,299529,2020-03-20 16:42:52:853
0.646435,-7.211335,-3.964798,0.0,49.84397,24.038763,371.0,NaN,2.556,12.0,0.0,18 / 18,300028,2020-03-20 16:42:53:352
-3.639186,-2.1883,4.424485,0.0,49.84397,24.038763,371.0,NaN,2.556,12.0,0.0,18 / 18,300529,2020-03-20 16:42:53:853
-0.411803,-5.506664,-2.264915,0.0,49.84397,24.038763,371.0,NaN,2.556,12.0,0.0,18 / 18,301029,2020-03-20 16:42:54:353
7.718907,-8.700529,-0.737414,0.0,49.84397,24.038763,371.0,NaN,2.556,12.0,0.0,18 / 18,301528,2020-03-20 16:42:54:852
-2.873042,-22.73534,4.831499,0.0,49.84397,24.038763,371.0,NaN,2.556,12.0,0.0,18 / 18,302028,2020-03-20 16:42:55:352
-5.774814,-13.393165,3.098097,0.0,49.84397,24.038763,371.0,NaN,2.556,12.0,0.0,18 / 18,302529,2020-03-20 16:42:55:853
-0.205901,-21.418528,-6.847417,0.0,49.84397,24.038763,371.0,NaN,2.556,12.0,0.0,18 / 18,303029,2020-03-20 16:42:56:353
4.692636,-12.133814,4.505888,0.0,49.84397,24.038763,371.0,NaN,2.556,12.0,0.0,18 / 18,303529,2020-03-20 16:42:56:853
-2.566584,-13.508086,-10.520123,0.0,49.84397,24.038763,371.0,NaN,2.556,12.0,0.0,18 / 18,304028,2020-03-20 16:42:57:352
5.511452,-13.306973,-1.383848,0.0,49.84397,24.038763,371.0,NaN,2.556,12.0,0.0,18 / 18,304528,2020-03-20 16:42:57:852
-0.818817,-21.126436,-24.17665,0.0,49.84397,24.038763,371.0,NaN,2.556,12.0,0.0,18 / 18,305028,2020-03-20 16:42:58:352
-0.062249,-11.48738,-3.730166,0.0,49.84397,24.038763,371.0,NaN,2.556,12.0,0.0,18 / 18,305529,2020-03-20 16:42:58:853
-2.978387,-1.426944,4.213795,0.0,49.84397,24.038763,371.0,NaN,2.556,12.0,0.0,18 / 18,306029,2020-03-20 16:42:59:353
-2.231396,-5.880159,-4.022259,0.0,49.84397,24.038763,371.0,NaN,2.556,12.0,0.0,18 / 18,306529,2020-03-20 16:42:59:853
3.974375,-10.146626,-0.794875,0.0,49.84397,24.038763,371.0,NaN,2.556,12.0,0.0,18 / 18,307028,2020-03-20 16:43:00:352
-6.023811,-16.347609,3.830723,0.0,49.84397,24.038763,371.0,NaN,2.556,12.0,0.0,18 / 18,307528,2020-03-20 16:43:00:852
1.613692,-16.026787,-5.473145,0.0,49.84397,24.038763,371.0,NaN,2.556,12.0,0.0,18 / 18,308029,2020-03-20 16:43:01:353
-1.94888,-21.11207,3.8403,0.0,49.84397,24.038763,371.0,NaN,2.556,12.0,0.0,18 / 18,308529,2020-03-20 16:43:01:853
-4.625597,-13.694834,4.568137,0.0,49.84397,24.038763,371.0,NaN,2.556,12.0,0.0,18 / 18,309029,2020-03-20 16:43:02:353
-1.541866,-25.847801,-7.144298,0.0,49.84397,24.038763,371.0,NaN,2.556,12.0,0.0,18 / 18,309528,2020-03-20 16:43:02:852
5.295975,-13.125013,1.790863,0.0,49.84397,24.038763,371.0,NaN,2.556,12.0,0.0,18 / 18,310028,2020-03-20 16:43:03:352
-3.007117,-14.887146,-12.622231,0.0,49.84397,24.038763,371.0,NaN,2.556,12.0,0.0,18 / 18,310529,2020-03-20 16:43:03:853
0.263362,-8.66701,0.287304,0.0,49.84397,24.038763,371.0,NaN,2.556,12.0,0.0,18 / 18,311029,2020-03-20 16:43:04:353
-2.078167,-3.940856,4.323929,0.0,49.84397,24.038763,371.0,NaN,2.556,12.0,0.0,18 / 18,311528,2020-03-20 16:43:04:852
-0.914585,-5.72693,1.714248,0.0,49.84397,24.038763,371.0,NaN,2.556,12.0,0.0,18 / 18,312028,2020-03-20 16:43:05:352
-4.520252,-1.594538,4.314352,0.0,49.84397,24.038763,371.0,NaN,2.556,12.0,0.0,18 / 18,312528,2020-03-20 16:43:05:852
-2.978387,-6.813898,-3.375824,0.0,49.84397,24.038763,371.0,NaN,2.556,12.0,0.0,18 / 18,313029,2020-03-20 16:43:06:353
2.375048,-9.457097,-0.574608,0.0,49.84397,24.038763,371.0,NaN,2.556,12.0,0.0,18 / 18,313529,2020-03-20 16:43:06:853
-3.600879,-15.20797,4.735731,0.0,49.84397,24.038763,371.0,NaN,2.556,12.0,0.0,18 / 18,314028,2020-03-20 16:43:07:352
-4.333505,-14.044387,-1.958457,0.0,49.84397,24.038763,371.0,NaN,2.556,12.0,0.0,18 / 18,314528,2020-03-20 16:43:07:852
-2.15957,-18.598158,-7.503428,0.0,49.84397,24.038763,371.0,NaN,2.556,12.0,0.0,18 / 18,315028,2020-03-20 16:43:08:352
7.417237,-12.98615,1.92015,0.0,49.84397,24.038763,371.0,NaN,2.556,12.0,0.0,18 / 18,315529,2020-03-20 16:43:08:853
0.952892,-4.750096,-6.081272,0.0,49.84397,24.038763,371.0,NaN,2.556,12.0,0.0,18 / 18,316029,2020-03-20 16:43:09:353
5.300763,-12.11466,1.934515,0.0,49.84397,24.038763,371.0,NaN,2.556,12.0,0.0,18 / 18,316528,2020-03-20 16:43:09:852
-0.847547,-9.543288,-10.443508,0.0,49.84397,24.038763,371.0,NaN,2.556,12.0,0.0,18 / 18,317028,2020-03-20 16:43:10:352
-0.866701,-9.107543,2.375048,0.0,49.84397,24.038763,371.0,NaN,2.556,12.0,0.0,18 / 18,317528,2020-03-20 16:43:10:852
-0.636858,-3.366248,1.838747,0.0,49.84397,24.038763,371.0,NaN,2.556,12.0,0.0,18 / 18,318029,2020-03-20 16:43:11:353
-4.395754,-4.788403,0.80924,0.0,49.84397,24.038763,371.0,NaN,2.556,12.0,0.0,18 / 18,318529,2020-03-20 16:43:11:853
8.18817,-9.016563,0.943315,0.0,49.84397,24.038763,371.0,NaN,2.556,12.0,0.0,18 / 18,319029,2020-03-20 16:43:12:353
-4.448426,-9.203311,5.401319,0.0,49.84397,24.038763,371.0,NaN,2.556,12.0,0.0,18 / 18,319528,2020-03-20 16:43:12:852
-6.224924,-13.982138,1.49877,0.0,49.84397,24.038763,371.0,NaN,2.556,12.0,0.0,18 / 18,320028,2020-03-20 16:43:13:352
3.696648,-19.110518,2.652776,0.0,49.84397,24.038763,371.0,NaN,2.556,12.0,0.0,18 / 18,320529,2020-03-20 16:43:13:853
-4.520252,-12.550406,7.235278,0.0,49.84397,24.038763,371.0,NaN,2.556,12.0,0.0,18 / 18,321029,2020-03-20 16:43:14:353
-0.287304,-21.40895,-2.379836,0.0,49.84397,24.038763,371.0,NaN,2.556,12.0,0.0,18 / 18,321528,2020-03-20 16:43:14:852
2.207454,-12.210428,1.647211,0.0,49.84397,24.038763,371.0,NaN,2.556,12.0,0.0,18 / 18,322028,2020-03-20 16:43:15:352
3.074155,-22.07454,-19.302053,0.0,49.84397,24.038763,371.0,NaN,2.556,12.0,0.0,18 / 18,322529,2020-03-20 16:43:15:853
-0.004788,-10.663774,2.896984,0.0,49.84397,24.038763,371.0,NaN,2.556,12.0,0.0,0 / 0,323028,2020-03-20 16:43:16:352
-3.20823,-1.656788,4.76925,0.0,49.84397,24.038763,371.0,NaN,2.556,12.0,0.0,0 / 0,323528,2020-03-20 16:43:16:852
-2.097321,-6.593631,-2.063802,0.0,49.84397,24.038763,371.0,NaN,2.556,12.0,0.0,0 / 0,324029,2020-03-20 16:43:17:353
1.781286,-8.925584,-0.35913,0.0,49.84397,24.038763,371.0,NaN,2.556,12.0,0.0,0 / 0,324529,2020-03-20 16:43:17:853
0.229843,-6.971915,-0.579397,0.0,49.84397,24.038763,371.0,NaN,2.556,12.0,0.0,7 / 7,325028,2020-03-20 16:43:18:352
5.650316,-6.952761,0.90022,0.0,49.84397,24.038763,371.0,NaN,2.556,12.0,0.0,8 / 8,325529,2020-03-20 16:43:18:853
11.69807,-20.537462,-0.244209,0.0,49.8434,24.03907,315.0,NaN,3.024,26.499998,0.0,8 / 8,326029,2020-03-20 16:43:19:353
-5.415684,-16.361975,2.384625,0.0,49.8434,24.03907,315.0,NaN,3.024,26.499998,0.0,8 / 8,326528,2020-03-20 16:43:19:852
-2.628833,-2.375048,17.051504,0.0,49.8434,24.03907,315.0,NaN,3.024,26.499998,0.0,8 / 8,327028,2020-03-20 16:43:20:352
1.436521,-14.221559,-11.377247,0.0,49.8434,24.03907,315.0,NaN,3.024,26.499998,0.0,8 / 8,327529,2020-03-20 16:43:20:853
-1.637634,-18.83758,-16.615759,0.0,49.8434,24.03907,315.0,NaN,3.024,26.499998,0.0,8 / 8,328028,2020-03-20 16:43:21:352
-0.402226,-11.769896,-2.791639,0.0,49.8434,24.03907,315.0,NaN,3.024,26.499998,0.0,8 / 8,328529,2020-03-20 16:43:21:853
-1.297657,-7.249643,-5.741296,0.0,49.8434,24.03907,315.0,NaN,3.024,26.499998,0.0,8 / 8,329028,2020-03-20 16:43:22:352
5.66947,-12.018892,-2.183512,0.0,49.8434,24.03907,315.0,NaN,3.024,26.499998,0.0,8 / 8,329528,2020-03-20 16:43:22:852
0.09098,-4.912902,-4.429273,0.0,49.8434,24.03907,315.0,NaN,3.024,26.499998,0.0,8 / 8,330029,2020-03-20 16:43:23:353
3.260903,-8.116343,1.010353,0.0,49.8434,24.03907,315.0,NaN,3.024,26.499998,0.0,8 / 8,330529,2020-03-20 16:43:23:853
0.885855,-5.233725,3.361459,0.0,49.8434,24.03907,315.0,NaN,3.024,26.499998,0.0,8 / 8,331028,2020-03-20 16:43:24:352
1.824382,-11.75553,-0.991199,0.0,49.8434,24.03907,315.0,NaN,3.024,26.499998,0.0,8 / 8,331528,2020-03-20 16:43:24:852
-8.475474,-19.182344,-0.790087,0.0,49.8434,24.03907,315.0,NaN,3.024,26.499998,0.0,8 / 8,332029,2020-03-20 16:43:25:353
-2.231396,13.905523,15.298949,0.0,49.8434,24.03907,315.0,NaN,3.024,26.499998,0.0,8 / 8,332528,2020-03-20 16:43:25:852
-3.251326,-16.25184,-0.02873,0.0,49.8434,24.03907,315.0,NaN,3.024,26.499998,0.0,8 / 8,333029,2020-03-20 16:43:26:353
-8.298302,-10.026917,25.416845,0.0,49.8434,24.03907,315.0,NaN,3.024,26.499998,0.0,8 / 8,333529,2020-03-20 16:43:26:853
4.060566,-16.610971,-4.156334,0.0,49.8434,24.03907,315.0,NaN,3.024,26.499998,0.0,8 / 8,334028,2020-03-20 16:43:27:352
0.675165,1.613692,-4.625597,0.0,49.8434,24.03907,315.0,NaN,3.024,26.499998,0.0,8 / 8,334528,2020-03-20 16:43:27:852
5.023035,-11.611878,-3.586514,0.0,49.8434,24.03907,315.0,NaN,3.024,26.499998,0.0,8 / 8,335029,2020-03-20 16:43:28:353
-1.086968,-2.652775,1.513135,0.0,49.8434,24.03907,315.0,NaN,3.024,26.499998,0.0,8 / 8,335528,2020-03-20 16:43:28:852
3.217807,-7.498639,0.014365,0.0,49.8434,24.03907,315.0,NaN,3.024,26.499998,0.0,8 / 8,336028,2020-03-20 16:43:29:352
2.06859,-3.620033,5.00867,0.0,49.8434,24.03907,315.0,NaN,3.024,26.499998,0.0,8 / 8,336529,2020-03-20 16:43:29:853
2.054225,-5.803545,0.42138,0.0,49.8434,24.03907,315.0,NaN,3.024,26.499998,0.0,8 / 8,337029,2020-03-20 16:43:30:353
-1.733402,-1.853112,4.55856,0.0,49.8434,24.03907,315.0,NaN,3.024,26.499998,0.0,8 / 8,337528,2020-03-20 16:43:30:852
-0.23942,-5.884948,-5.214571,0.0,49.8434,24.03907,315.0,NaN,3.024,26.499998,0.0,8 / 8,338029,2020-03-20 16:43:31:353
2.126051,-8.920795,-0.081403,0.0,49.8434,24.03907,315.0,NaN,3.024,26.499998,0.0,8 / 8,338529,2020-03-20 16:43:31:853
3.725378,-6.775591,1.584962,0.0,49.8434,24.03907,315.0,NaN,3.024,26.499998,0.0,8 / 8,339028,2020-03-20 16:43:32:352
-3.05979,-13.895947,-0.124498,0.0,49.8434,24.03907,315.0,NaN,3.024,26.499998,0.0,8 / 8,339528,2020-03-20 16:43:32:852
-8.475474,-22.151154,9.255983,0.0,49.8434,24.03907,315.0,NaN,3.024,26.499998,0.0,8 / 8,340029,2020-03-20 16:43:33:353
-0.584185,-14.561535,-1.225831,0.0,49.8434,24.03907,315.0,NaN,3.024,26.499998,0.0,8 / 8,340529,2020-03-20 16:43:33:853
5.995081,-25.953146,3.117251,0.0,49.8434,24.03907,315.0,NaN,3.024,26.499998,0.0,8 / 8,341028,2020-03-20 16:43:34:352
-5.003881,-15.260642,5.324705,0.0,49.8434,24.03907,315.0,NaN,3.024,26.499998,0.0,8 / 8,341528,2020-03-20 16:43:34:852
3.98874,-13.819332,32.50368,0.0,49.8434,24.03907,315.0,NaN,3.024,26.499998,0.0,8 / 8,342029,2020-03-20 16:43:35:353
-3.069367,-12.808979,-9.979033,0.0,49.8434,24.03907,315.0,NaN,3.024,26.499998,0.0,8 / 8,342529,2020-03-20 16:43:35:853
-2.844312,-4.161122,-3.873818,0.0,49.8434,24.03907,315.0,NaN,3.024,26.499998,0.0,8 / 8,343028,2020-03-20 16:43:36:352
2.772486,-5.770026,2.542642,0.0,49.8434,24.03907,315.0,NaN,3.024,26.499998,0.0,8 / 8,343528,2020-03-20 16:43:36:852
2.212242,-5.956774,3.05979,0.0,49.8434,24.03907,315.0,NaN,3.024,26.499998,0.0,8 / 8,344029,2020-03-20 16:43:37:353
3.165135,-13.733141,-6.655881,0.0,49.8434,24.03907,315.0,NaN,3.024,26.499998,0.0,8 / 8,344528,2020-03-20 16:43:37:852
0.770933,-3.706224,4.180277,0.0,49.8434,24.03907,315.0,NaN,3.024,26.499998,0.0,8 / 8,345028,2020-03-20 16:43:38:352
1.675941,-13.345281,-1.613692,0.0,49.8434,24.03907,315.0,NaN,3.024,26.499998,0.0,8 / 8,345528,2020-03-20 16:43:38:852
-7.412448,-19.52711,-1.565808,0.0,49.8434,24.03907,315.0,NaN,3.024,26.499998,0.0,8 / 8,346029,2020-03-20 16:43:39:353
-14.772224,12.090718,-8.025364,0.0,49.8434,24.03907,315.0,NaN,3.024,26.499998,0.0,8 / 8,346528,2020-03-20 16:43:39:852
4.209007,-10.160992,-2.671929,0.0,49.8434,24.03907,315.0,NaN,3.024,26.499998,0.0,8 / 8,347028,2020-03-20 16:43:40:352
-2.873042,-0.651223,2.600103,0.0,49.8434,24.03907,315.0,NaN,3.024,26.499998,0.0,8 / 8,347529,2020-03-20 16:43:40:853
2.25055,-7.690176,-1.091756,0.0,49.8434,24.03907,315.0,NaN,3.024,26.499998,0.0,8 / 8,348029,2020-03-20 16:43:41:353
1.321599,-12.028469,-0.972046,0.0,49.8434,24.03907,315.0,NaN,3.024,26.499998,0.0,8 / 8,348528,2020-03-20 16:43:41:852
1.077391,-8.044517,-0.59855,0.0,49.8434,24.03907,315.0,NaN,3.024,26.499998,0.0,8 / 8,349028,2020-03-20 16:43:42:352
1.474828,-7.292738,2.183512,0.0,49.8434,24.03907,315.0,NaN,3.024,26.499998,0.0,8 / 8,349529,2020-03-20 16:43:42:853
1.154005,-8.130708,0.837971,0.0,49.8434,24.03907,315.0,NaN,3.024,26.499998,0.0,8 / 8,350028,2020-03-20 16:43:43:352
-2.217031,-15.528792,-6.23929,0.0,49.8434,24.03907,315.0,NaN,3.024,26.499998,0.0,8 / 8,350528,2020-03-20 16:43:43:852
-9.409213,-23.69781,0.78051,0.0,49.8434,24.03907,315.0,NaN,3.024,26.499998,0.0,8 / 8,351028,2020-03-20 16:43:44:352
0.675165,-13.713987,-5.118803,0.0,49.8434,24.03907,315.0,NaN,3.024,26.499998,0.0,8 / 8,351529,2020-03-20 16:43:44:853
-1.268927,-3.471592,-1.546654,0.0,49.8434,24.03907,315.0,NaN,3.024,26.499998,0.0,8 / 8,352029,2020-03-20 16:43:45:353
3.026271,-6.464344,-2.221819,0.0,49.8434,24.03907,315.0,NaN,3.024,26.499998,0.0,8 / 8,352528,2020-03-20 16:43:45:852
0.378284,-4.055777,-5.046977,0.0,49.8434,24.03907,315.0,NaN,3.024,26.499998,0.0,8 / 8,353028,2020-03-20 16:43:46:352
2.346318,-7.862558,-0.143652,0.0,49.8434,24.03907,315.0,NaN,3.024,26.499998,0.0,8 / 8,353529,2020-03-20 16:43:46:853
5.48751,-7.709329,1.154005,0.0,49.8434,24.03907,315.0,NaN,3.024,26.499998,0.0,8 / 8,354029,2020-03-20 16:43:47:353
10.984597,-21.552603,-5.204994,0.0,49.8434,24.03907,315.0,NaN,3.024,26.499998,0.0,8 / 8,354528,2020-03-20 16:43:47:852
-0.80924,-12.41633,5.248091,0.0,49.8434,24.03907,315.0,NaN,3.024,26.499998,0.0,8 / 8,355028,2020-03-20 16:43:48:352
-4.290409,-25.474306,-7.790732,0.0,49.8434,24.03907,315.0,NaN,3.024,26.499998,0.0,8 / 8,355529,2020-03-20 16:43:48:853
6.153099,-12.033257,1.833959,0.0,49.8434,24.03907,315.0,NaN,3.024,26.499998,0.0,8 / 8,356029,2020-03-20 16:43:49:353
-5.511452,-13.536817,-15.08347,0.0,49.8434,24.03907,315.0,NaN,3.024,26.499998,0.0,8 / 8,356529,2020-03-20 16:43:49:853
-2.882619,-13.383588,-5.78918,0.0,49.8434,24.03907,315.0,NaN,3.024,26.499998,0.0,8 / 8,357028,2020-03-20 16:43:50:352
-5.449203,-21.978771,-20.60929,0.0,49.8434,24.03907,315.0,NaN,3.024,26.499998,0.0,8 / 8,357528,2020-03-20 16:43:50:852
-2.509123,-8.221688,1.824382,0.0,49.8434,24.03907,315.0,NaN,3.024,26.499998,0.0,8 / 8,358029,2020-03-20 16:43:51:353
-2.657564,-3.026271,3.476381,0.0,49.8434,24.03907,315.0,NaN,3.024,26.499998,0.0,8 / 8,358529,2020-03-20 16:43:51:853
-1.273715,-8.130708,0.258574,0.0,49.8434,24.03907,315.0,NaN,3.024,26.499998,0.0,8 / 8,359028,2020-03-20 16:43:52:352
-5.085284,-16.46253,-1.632845,0.0,49.8434,24.03907,315.0,NaN,3.024,26.499998,0.0,8 / 8,359528,2020-03-20 16:43:52:852
-11.113884,1.570596,-4.850652,0.0,49.8434,24.03907,315.0,NaN,3.024,26.499998,0.0,8 / 8,360028,2020-03-20 16:43:53:352
-0.105345,-14.235924,-4.673482,0.0,49.8434,24.03907,315.0,NaN,3.024,26.499998,0.0,8 / 8,360529,2020-03-20 16:43:53:853
-6.856993,6.287174,4.797981,0.0,49.8434,24.03907,315.0,NaN,3.024,26.499998,0.0,8 / 8,361028,2020-03-20 16:43:54:352
5.626374,-14.441825,-4.76925,0.0,49.8434,24.03907,315.0,NaN,3.024,26.499998,0.0,8 / 8,361528,2020-03-20 16:43:54:852
-0.244209,-18.191145,-11.659762,0.0,49.8434,24.03907,315.0,NaN,3.024,26.499998,0.0,8 / 8,362028,2020-03-20 16:43:55:352
-2.173935,-9.02614,3.069367,0.0,49.8434,24.03907,315.0,NaN,3.024,26.499998,0.0,8 / 8,362529,2020-03-20 16:43:55:853
-4.041412,-1.838747,3.596091,0.0,49.8434,24.03907,315.0,NaN,3.024,26.499998,0.0,8 / 8,363028,2020-03-20 16:43:56:352
-2.408567,-6.813898,-0.158017,0.0,49.8434,24.03907,315.0,NaN,3.024,26.499998,0.0,8 / 8,363528,2020-03-20 16:43:56:852
-3.308787,-16.486473,-1.599327,0.0,49.8434,24.03907,315.0,NaN,3.024,26.499998,0.0,8 / 8,364029,2020-03-20 16:43:57:353
-7.541735,4.865018,-7.762002,0.0,49.8434,24.03907,315.0,NaN,3.024,26.499998,0.0,8 / 8,364528,2020-03-20 16:43:57:852
-0.454898,-12.196063,0.201113,0.0,49.8434,24.03907,315.0,NaN,3.024,26.499998,0.0,8 / 8,365028,2020-03-20 16:43:58:352
-1.254562,-14.101848,20.039469,0.0,49.8434,24.03907,315.0,NaN,3.024,26.499998,0.0,8 / 8,365529,2020-03-20 16:43:58:853
6.110003,-14.595054,-3.926491,0.0,49.8434,24.03907,315.0,NaN,3.024,26.499998,0.0,8 / 8,366029,2020-03-20 16:43:59:353
-5.348646,-7.034164,-6.378153,0.0,49.8434,24.03907,315.0,NaN,3.024,26.499998,0.0,8 / 8,366528,2020-03-20 16:43:59:852
-0.35913,-10.591949,-2.269703,0.0,49.8434,24.03907,315.0,NaN,3.024,26.499998,0.0,8 / 8,367028,2020-03-20 16:44:00:352
-3.303998,0.35913,4.639963,0.0,49.8434,24.03907,315.0,NaN,3.024,26.499998,0.0,8 / 8,367529,2020-03-20 16:44:00:853
-0.588974,-6.895301,-2.983175,0.0,49.8434,24.03907,315.0,NaN,3.024,26.499998,0.0,8 / 8,368028,2020-03-20 16:44:01:352
2.231396,-8.259995,0.694319,0.0,49.8434,24.03907,315.0,NaN,3.024,26.499998,0.0,8 / 8,368528,2020-03-20 16:44:01:852
1.671153,-6.694188,-0.129287,0.0,49.8434,24.03907,315.0,NaN,3.024,26.499998,0.0,8 / 8,369029,2020-03-20 16:44:02:353
5.846641,-7.991845,0.933739,0.0,49.8434,24.03907,315.0,NaN,3.024,26.499998,0.0,8 / 8,369528,2020-03-20 16:44:02:852
1.805228,-19.057846,3.950433,0.0,49.8434,24.03907,315.0,NaN,3.024,26.499998,0.0,8 / 8,370028,2020-03-20 16:44:03:352
0.081403,-15.480908,-4.529829,0.0,49.8434,24.03907,315.0,NaN,3.024,26.499998,0.0,8 / 8,370529,2020-03-20 16:44:03:853
-0.531513,-3.921702,-8.791509,0.0,49.8434,24.03907,315.0,NaN,3.024,26.499998,0.0,8 / 8,371028,2020-03-20 16:44:04:352
5.0374,-11.530476,-3.548207,0.0,49.8434,24.03907,315.0,NaN,3.024,26.499998,0.0,8 / 8,371528,2020-03-20 16:44:04:852
0.153229,-2.595315,2.27928,0.0,49.8434,24.03907,315.0,NaN,3.024,26.499998,0.0,8 / 8,372029,2020-03-20 16:44:05:353
3.931279,-7.259219,-0.057461,0.0,49.8434,24.03907,315.0,NaN,3.024,26.499998,0.0,8 / 8,372529,2020-03-20 16:44:05:853
-0.287304,-2.901772,-1.58975,0.0,49.8434,24.03907,315.0,NaN,3.024,26.499998,0.0,8 / 8,373028,2020-03-20 16:44:06:352
0.488417,-7.608773,0.871489,0.0,49.8434,24.03907,315.0,NaN,3.024,26.499998,0.0,8 / 8,373528,2020-03-20 16:44:06:852
-1.517924,-3.845088,3.624822,0.0,49.8434,24.03907,315.0,NaN,3.024,26.499998,0.0,8 / 8,374029,2020-03-20 16:44:07:353
-6.282385,-7.699753,-2.916138,0.0,49.8434,24.03907,315.0,NaN,3.024,26.499998,0.0,0 / 0,374529,2020-03-20 16:44:07:853
-4.620809,-15.753847,-1.68073,0.0,49.8434,24.03907,315.0,NaN,3.024,26.499998,0.0,0 / 1,375029,2020-03-20 16:44:08:353
-15.030798,4.352659,-7.589619,0.0,49.8434,24.03907,315.0,NaN,3.024,26.499998,0.0,0 / 1,375528,2020-03-20 16:44:08:852
4.544195,-15.246277,-2.964022,0.0,49.8434,24.03907,315.0,NaN,3.024,26.499998,0.0,4 / 4,376028,2020-03-20 16:44:09:352
-3.404555,-16.361975,-12.066776,0.0,49.8434,24.03907,315.0,NaN,3.024,26.499998,0.0,4 / 4,376530,2020-03-20 16:44:09:854
-1.460463,-7.517793,0.497994,0.0,49.8434,24.03907,315.0,NaN,3.024,26.499998,0.0,16 / 16,377029,2020-03-20 16:44:10:353
-3.931279,-20.09693,-21.528662,0.0,49.8434,24.03907,315.0,NaN,3.024,26.499998,0.0,16 / 16,377529,2020-03-20 16:44:10:853
0.11971,-8.408437,0.033519,0.0,49.843174,24.040054,358.0,NaN,1.584,10.5,44.1,19 / 19,378028,2020-03-20 16:44:11:352
-3.016694,-2.394202,3.739743,0.0,49.843174,24.040054,358.0,NaN,1.584,10.5,44.1,19 / 19,378529,2020-03-20 16:44:11:853
-0.699107,-8.604761,-0.071826,0.0,49.843174,24.040054,358.0,NaN,1.584,10.5,44.1,19 / 19,379029,2020-03-20 16:44:12:353
-8.365341,-21.389797,-1.216254,0.0,49.843174,24.040054,358.0,NaN,1.584,10.5,44.1,19 / 19,379528,2020-03-20 16:44:12:852
-8.298302,9.188946,6.756438,0.0,49.843174,24.040054,358.0,NaN,1.584,10.5,44.1,19 / 19,380029,2020-03-20 16:44:13:353
2.346318,-13.196839,-2.178723,0.0,49.843174,24.040054,358.0,NaN,1.584,10.5,44.1,19 / 19,380529,2020-03-20 16:44:13:853
-4.362235,-15.227123,-13.474567,0.0,49.843174,24.040054,358.0,NaN,1.584,10.5,44.1,19 / 19,381028,2020-03-20 16:44:14:352
0.9912,-7.498639,0.617704,0.0,49.843174,24.040054,358.0,NaN,1.584,10.5,44.1,19 / 19,381528,2020-03-20 16:44:14:852
-1.900996,-11.793838,-8.901642,0.0,49.843174,24.040054,358.0,NaN,1.584,10.5,44.1,19 / 19,382029,2020-03-20 16:44:15:353
1.915361,-7.843405,1.403002,0.0,49.843174,24.040054,358.0,NaN,1.584,10.5,44.1,19 / 19,382529,2020-03-20 16:44:15:853
2.528277,-4.702212,4.395755,0.0,49.843174,24.040054,358.0,NaN,1.584,10.5,44.1,19 / 19,383028,2020-03-20 16:44:16:352
6.05733,-15.351622,-9.691729,0.0,49.843174,24.040054,358.0,NaN,1.584,10.5,44.1,19 / 19,383528,2020-03-20 16:44:16:852
-1.905785,-12.550406,5.980716,0.0,49.843174,24.040054,358.0,NaN,1.584,10.5,44.1,19 / 19,384028,2020-03-20 16:44:17:352
-1.173159,-17.166426,-7.608773,0.0,49.843174,24.040054,358.0,NaN,1.584,10.5,44.1,19 / 19,384529,2020-03-20 16:44:17:853
5.094861,-12.229582,4.941633,0.0,49.843174,24.040054,358.0,NaN,1.584,10.5,44.1,19 / 19,385028,2020-03-20 16:44:18:352
0.507571,-4.850652,-4.960786,0.0,49.843174,24.040054,358.0,NaN,1.584,10.5,44.1,19 / 19,385528,2020-03-20 16:44:18:852
2.738967,-12.574347,0.363919,0.0,49.843174,24.040054,358.0,NaN,1.584,10.5,44.1,19 / 19,386028,2020-03-20 16:44:19:352
-0.383072,-1.891419,0.608127,0.0,49.843174,24.040054,358.0,NaN,1.584,10.5,44.1,19 / 19,386529,2020-03-20 16:44:19:853
1.168371,-8.09719,-2.178723,0.0,49.843174,24.040054,358.0,NaN,1.584,10.5,44.1,19 / 19,387029,2020-03-20 16:44:20:353
7.61835,-9.303867,0.981623,0.0,49.843174,24.040054,358.0,NaN,1.584,10.5,44.1,19 / 19,387528,2020-03-20 16:44:20:852
-2.403778,-14.369999,3.5099,0.0,49.843174,24.040054,358.0,NaN,1.584,10.5,44.1,19 / 19,388028,2020-03-20 16:44:21:352
3.711013,-16.089035,-5.391742,0.0,49.843174,24.040054,358.0,NaN,1.584,10.5,44.1,19 / 19,388529,2020-03-20 16:44:21:853
3.303998,-0.804452,-4.261679,0.0,49.843174,24.040054,358.0,NaN,1.584,10.5,44.1,19 / 19,389029,2020-03-20 16:44:22:353
-0.282516,-10.989386,-1.570596,0.0,49.843174,24.040054,358.0,NaN,1.584,10.5,44.1,19 / 19,389529,2020-03-20 16:44:22:853
-2.633622,-7.905654,-4.860229,0.0,49.843174,24.040054,358.0,NaN,1.584,10.5,44.1,19 / 19,390028,2020-03-20 16:44:23:352
-0.191536,-9.921572,0.325611,0.0,49.843174,24.040054,358.0,NaN,1.584,10.5,44.1,19 / 19,390529,2020-03-20 16:44:23:853
-3.945644,-0.392649,4.13718,0.0,49.843174,24.040054,358.0,NaN,1.584,10.5,44.1,19 / 19,391028,2020-03-20 16:44:24:352
-1.92015,-7.943961,0.038307,0.0,49.843174,24.040054,358.0,NaN,1.584,10.5,44.1,19 / 19,391528,2020-03-20 16:44:24:852
-3.792415,-13.388376,2.087744,0.0,49.843174,24.040054,358.0,NaN,1.584,10.5,44.1,19 / 19,392028,2020-03-20 16:44:25:352
-4.381389,-14.068329,12.061988,0.0,49.843174,24.040054,358.0,NaN,1.584,10.5,44.1,19 / 19,392529,2020-03-20 16:44:25:853
6.861782,-13.838486,-3.969586,0.0,49.843174,24.040054,358.0,NaN,1.584,10.5,44.1,19 / 19,393029,2020-03-20 16:44:26:353
-0.205901,-11.410766,-6.023811,0.0,49.843174,24.040054,358.0,NaN,1.584,10.5,44.1,19 / 19,393528,2020-03-20 16:44:26:852
5.147534,-19.804836,-7.302315,0.0,49.843174,24.040054,358.0,NaN,1.584,10.5,44.1,19 / 19,394029,2020-03-20 16:44:27:353
-1.872266,-4.276044,-4.606444,0.0,49.843174,24.040054,358.0,NaN,1.584,10.5,44.1,19 / 19,394528,2020-03-20 16:44:27:852
2.724602,-9.998186,-3.830723,0.0,49.843174,24.040054,358.0,NaN,1.584,10.5,44.1,19 / 19,395028,2020-03-20 16:44:28:352
-3.845088,-1.125275,3.687071,0.0,49.843174,24.040054,358.0,NaN,1.584,10.5,44.1,19 / 19,395529,2020-03-20 16:44:28:853
-0.651223,-7.603985,-2.777274,0.0,49.843174,24.040054,358.0,NaN,1.584,10.5,44.1,19 / 19,396028,2020-03-20 16:44:29:352
1.896208,-9.131485,-1.312023,0.0,49.843174,24.040054,358.0,NaN,1.584,10.5,44.1,19 / 19,396528,2020-03-20 16:44:29:852
-6.876147,-19.359514,1.086968,0.0,49.843174,24.040054,358.0,NaN,1.584,10.5,44.1,19 / 19,397028,2020-03-20 16:44:30:352
2.427721,-14.992491,-4.304775,0.0,49.843174,24.040054,358.0,NaN,1.584,10.5,44.1,19 / 19,397529,2020-03-20 16:44:30:853
-4.764461,-19.029116,7.316681,0.0,49.843174,24.040054,358.0,NaN,1.584,10.5,44.1,19 / 19,398028,2020-03-20 16:44:31:352
3.964798,-15.112201,-4.424484,0.0,49.843174,24.040054,358.0,NaN,1.584,10.5,44.1,19 / 19,398528,2020-03-20 16:44:31:852
-2.140416,-7.091625,-8.686164,0.0,49.843174,24.040054,358.0,NaN,1.584,10.5,44.1,19 / 19,399029,2020-03-20 16:44:32:353
3.399767,-12.186486,-4.390966,0.0,49.843174,24.040054,358.0,NaN,1.584,10.5,44.1,19 / 19,399529,2020-03-20 16:44:32:853
-3.203442,-0.272939,4.271256,0.0,49.843174,24.040054,358.0,NaN,1.584,10.5,44.1,19 / 19,400028,2020-03-20 16:44:33:352
-1.417367,-5.473145,-2.178723,0.0,49.843174,24.040054,358.0,NaN,1.584,10.5,44.1,19 / 19,400529,2020-03-20 16:44:33:853
0.21069,-10.82658,0.440533,0.0,49.843174,24.040054,358.0,NaN,1.584,10.5,44.1,19 / 19,401029,2020-03-20 16:44:34:353
-3.864241,-13.953407,3.428497,0.0,49.843174,24.040054,358.0,NaN,1.584,10.5,44.1,19 / 19,401528,2020-03-20 16:44:34:852
2.351106,-10.386047,-0.608127,0.0,49.843174,24.040054,358.0,NaN,1.584,10.5,44.1,19 / 19,402028,2020-03-20 16:44:35:352
-4.941632,-16.639702,8.767567,0.0,49.843174,24.040054,358.0,NaN,1.584,10.5,44.1,19 / 19,402529,2020-03-20 16:44:35:853
0.608127,-14.887146,-4.022259,0.0,49.843174,24.040054,358.0,NaN,1.584,10.5,44.1,19 / 19,403029,2020-03-20 16:44:36:353
-3.696647,-3.150769,-5.602432,0.0,49.843174,24.040054,358.0,NaN,1.584,10.5,44.1,19 / 19,403529,2020-03-20 16:44:36:853
3.438074,-10.778696,-2.331952,0.0,49.843174,24.040054,358.0,NaN,1.584,10.5,44.1,19 / 19,404028,2020-03-20 16:44:37:352
-3.438074,-0.933739,4.141969,0.0,49.843174,24.040054,358.0,NaN,1.584,10.5,44.1,19 / 19,404528,2020-03-20 16:44:37:852
-0.981623,-5.506664,-1.522712,0.0,49.843174,24.040054,358.0,NaN,1.584,10.5,44.1,19 / 19,405029,2020-03-20 16:44:38:353
0.814029,-9.097966,0.277727,0.0,49.843174,24.040054,358.0,NaN,1.584,10.5,44.1,19 / 19,405529,2020-03-20 16:44:38:853
-2.571372,-6.186617,-2.710236,0.0,49.843174,24.040054,358.0,NaN,1.584,10.5,44.1,19 / 19,406028,2020-03-20 16:44:39:352
2.006341,-8.911219,0.794875,0.0,49.843174,24.040054,358.0,NaN,1.584,10.5,44.1,19 / 19,406528,2020-03-20 16:44:39:852
-2.42772,-15.20797,2.082955,0.0,49.843174,24.040054,358.0,NaN,1.584,10.5,44.1,19 / 19,407029,2020-03-20 16:44:40:353
1.316811,-14.528016,-5.051765,0.0,49.843174,24.040054,358.0,NaN,1.584,10.5,44.1,19 / 19,407528,2020-03-20 16:44:40:852
-0.641646,-8.03494,-5.300762,0.0,49.843174,24.040054,358.0,NaN,1.584,10.5,44.1,19 / 19,408028,2020-03-20 16:44:41:352
3.05979,-12.119449,-11.051635,0.0,49.843174,24.040054,358.0,NaN,1.584,10.5,44.1,19 / 19,408529,2020-03-20 16:44:41:853
-1.94888,-0.095768,4.821923,0.0,49.843174,24.040054,358.0,NaN,1.584,10.5,44.1,19 / 19,409028,2020-03-20 16:44:42:352
-1.273715,-6.50744,-3.031059,0.0,49.843174,24.040054,358.0,NaN,1.584,10.5,44.1,19 / 19,409529,2020-03-20 16:44:42:853
-3.189077,-0.421379,4.309563,0.0,49.843174,24.040054,358.0,NaN,1.584,10.5,44.1,19 / 19,410029,2020-03-20 16:44:43:353
-2.260126,-8.571242,-3.265691,0.0,49.843174,24.040054,358.0,NaN,1.584,10.5,44.1,19 / 19,410528,2020-03-20 16:44:43:852
-0.646434,-11.913548,-0.909797,0.0,49.843174,24.040054,358.0,NaN,1.584,10.5,44.1,19 / 19,411028,2020-03-20 16:44:44:352
-4.443638,-13.541605,5.597644,0.0,49.843174,24.040054,358.0,NaN,1.584,10.5,44.1,19 / 19,411528,2020-03-20 16:44:44:852
2.892196,-15.32768,-5.430049,0.0,49.843174,24.040054,358.0,NaN,1.584,10.5,44.1,19 / 19,412029,2020-03-20 16:44:45:353
-0.258574,-4.429273,-4.649539,0.0,49.843174,24.040054,358.0,NaN,1.584,10.5,44.1,19 / 19,412528,2020-03-20 16:44:45:852
6.229713,-11.286267,-4.932055,0.0,49.843174,24.040054,358.0,NaN,1.584,10.5,44.1,19 / 19,413028,2020-03-20 16:44:46:352
-2.389413,-0.914585,4.046201,0.0,49.843174,24.040054,358.0,NaN,1.584,10.5,44.1,19 / 19,413529,2020-03-20 16:44:46:853
3.864242,-10.386047,-6.818686,0.0,49.843174,24.040054,358.0,NaN,1.584,10.5,44.1,19 / 19,414029,2020-03-20 16:44:47:353
-1.987187,-1.058237,3.706224,0.0,49.843174,24.040054,358.0,NaN,1.584,10.5,44.1,19 / 19,414528,2020-03-20 16:44:47:852
1.149217,-5.60722,-0.21069,0.0,49.843174,24.040054,358.0,NaN,1.584,10.5,44.1,19 / 19,415029,2020-03-20 16:44:48:353
6.981492,-7.225701,0.90022,0.0,49.843174,24.040054,358.0,NaN,1.584,10.5,44.1,19 / 19,415528,2020-03-20 16:44:48:852
-0.033519,-19.507956,2.341529,0.0,49.843174,24.040054,358.0,NaN,1.584,10.5,44.1,19 / 19,416028,2020-03-20 16:44:49:352
-3.830723,-13.235147,-1.120486,0.0,49.843174,24.040054,358.0,NaN,1.584,10.5,44.1,19 / 19,416529,2020-03-20 16:44:49:853
-4.386177,-15.782578,-5.93762,0.0,49.843174,24.040054,358.0,NaN,1.584,10.5,44.1,19 / 19,417028,2020-03-20 16:44:50:352
4.477157,-13.235147,3.423709,0.0,49.843174,24.040054,358.0,NaN,1.584,10.5,44.1,19 / 19,417528,2020-03-20 16:44:50:852
3.447651,-23.673866,15.346833,0.0,49.843174,24.040054,358.0,NaN,1.584,10.5,44.1,19 / 19,418029,2020-03-20 16:44:51:353
4.683059,-12.368446,2.37026,0.0,49.843174,24.040054,358.0,NaN,1.584,10.5,44.1,19 / 19,418528,2020-03-20 16:44:51:852
-5.051765,-14.949395,-14.877569,0.0,49.843174,24.040054,358.0,NaN,1.584,10.5,44.1,19 / 19,419029,2020-03-20 16:44:52:353
1.44131,-7.781155,1.125275,0.0,49.843174,24.040054,358.0,NaN,1.584,10.5,44.1,19 / 19,419528,2020-03-20 16:44:52:852
-1.972822,-4.740519,3.897761,0.0,49.843174,24.040054,358.0,NaN,1.584,10.5,44.1,19 / 19,420028,2020-03-20 16:44:53:352
2.829947,-9.227253,-1.154005,0.0,49.843174,24.040054,358.0,NaN,1.584,10.5,44.1,19 / 19,420529,2020-03-20 16:44:53:853
-6.584054,-17.961302,-2.456451,0.0,49.843174,24.040054,358.0,NaN,1.584,10.5,44.1,19 / 19,421029,2020-03-20 16:44:54:353
-10.568007,6.818687,-3.677494,0.0,49.843174,24.040054,358.0,NaN,1.584,10.5,44.1,19 / 19,421528,2020-03-20 16:44:54:852
-2.719813,-15.064317,-9.083601,0.0,49.843174,24.040054,358.0,NaN,1.584,10.5,44.1,19 / 19,422029,2020-03-20 16:44:55:353
-3.308787,-2.413355,-1.675941,0.0,49.843174,24.040054,358.0,NaN,1.584,10.5,44.1,19 / 19,422529,2020-03-20 16:44:55:853
3.96001,-16.060305,-4.103661,0.0,49.843174,24.040054,358.0,NaN,1.584,10.5,44.1,19 / 19,423028,2020-03-20 16:44:56:352
0.387861,-3.725378,-5.023035,0.0,49.843174,24.040054,358.0,NaN,1.584,10.5,44.1,19 / 19,423528,2020-03-20 16:44:56:852
1.70946,-12.703634,-5.837064,0.0,49.843174,24.040054,358.0,NaN,1.584,10.5,44.1,19 / 19,424029,2020-03-20 16:44:57:353
-1.149217,-1.177947,3.60088,0.0,49.843174,24.040054,358.0,NaN,1.584,10.5,44.1,19 / 19,424529,2020-03-20 16:44:57:853
0.167594,-7.264008,-2.504335,0.0,49.843174,24.040054,358.0,NaN,1.584,10.5,44.1,19 / 19,425028,2020-03-20 16:44:58:352
5.492299,-8.331821,-0.339977,0.0,49.843174,24.040054,358.0,NaN,1.584,10.5,44.1,19 / 19,425528,2020-03-20 16:44:58:852
4.266468,-18.674774,1.11091,0.0,49.843174,24.040054,358.0,NaN,1.584,10.5,44.1,19 / 19,426029,2020-03-20 16:44:59:353
2.806004,-6.205771,3.754108,0.0,49.843174,24.040054,358.0,NaN,1.584,10.5,44.1,19 / 19,426529,2020-03-20 16:44:59:853
2.035071,-12.890382,-3.035848,0.0,49.843174,24.040054,358.0,NaN,1.584,10.5,44.1,19 / 19,427028,2020-03-20 16:45:00:352
-9.126697,-19.982008,-1.594538,0.0,49.843174,24.040054,358.0,NaN,1.584,10.5,44.1,19 / 19,427528,2020-03-20 16:45:00:852
-4.620809,-2.63841,17.123331,0.0,49.843174,24.040054,358.0,NaN,1.584,10.5,44.1,0 / 0,428029,2020-03-20 16:45:01:353
-5.123591,-14.159308,-13.220781,0.0,49.843174,24.040054,358.0,NaN,1.584,10.5,44.1,0 / 0,428529,2020-03-20 16:45:01:853
-0.861913,-22.998701,-20.451271,0.0,49.843174,24.040054,358.0,NaN,1.584,10.5,44.1,4 / 4,429028,2020-03-20 16:45:02:352
0.474052,-7.173028,-0.435745,0.0,49.843174,24.040054,358.0,NaN,1.584,10.5,44.1,4 / 4,429529,2020-03-20 16:45:02:853
-2.523488,-2.504335,3.98874,0.0,49.843174,24.040054,358.0,NaN,1.584,10.5,44.1,7 / 7,430029,2020-03-20 16:45:03:353
-0.517148,-10.228029,-1.68073,0.0,49.843174,24.040054,358.0,NaN,1.584,10.5,44.1,7 / 7,430528,2020-03-20 16:45:03:852
-0.368707,-5.626374,4.055778,0.0,49.842907,24.04118,347.0,NaN,4.536,18.0,28.7,13 / 13,431028,2020-03-20 16:45:04:352
2.681506,-11.903971,-4.252102,0.0,49.842907,24.04118,347.0,NaN,4.536,18.0,28.7,13 / 13,431529,2020-03-20 16:45:04:853
-8.236053,-18.59337,-1.489193,0.0,49.842907,24.04118,347.0,NaN,4.536,18.0,28.7,13 / 13,432028,2020-03-20 16:45:05:352
-2.825158,-1.192312,20.408175,0.0,49.842907,24.04118,347.0,NaN,4.536,18.0,28.7,13 / 13,432528,2020-03-20 16:45:05:852
3.260903,-12.861651,2.03986,0.0,49.842907,24.04118,347.0,NaN,4.536,18.0,28.7,13 / 13,433028,2020-03-20 16:45:06:352
-6.766014,-24.191013,-25.756823,0.0,49.842907,24.04118,347.0,NaN,4.536,18.0,28.7,13 / 13,433529,2020-03-20 16:45:06:853
-0.196325,-7.852981,-0.282516,0.0,49.842907,24.04118,347.0,NaN,4.536,18.0,28.7,13 / 13,434028,2020-03-20 16:45:07:352
3.921703,-20.503942,-15.792154,0.0,49.842907,24.04118,347.0,NaN,4.536,18.0,28.7,13 / 13,434528,2020-03-20 16:45:07:852
-0.694318,-11.559206,-2.284068,0.0,49.842907,24.04118,347.0,NaN,4.536,18.0,28.7,13 / 13,435029,2020-03-20 16:45:08:353
-3.792415,-3.112462,3.165135,0.0,49.842907,24.04118,347.0,NaN,4.536,18.0,28.7,13 / 13,435528,2020-03-20 16:45:08:852
-1.043872,-7.173028,-2.667141,0.0,49.842907,24.04118,347.0,NaN,4.536,18.0,28.7,13 / 13,436028,2020-03-20 16:45:09:352
-1.015141,-12.109872,0.737414,0.0,49.842907,24.04118,347.0,NaN,4.536,18.0,28.7,13 / 13,436529,2020-03-20 16:45:09:853
-2.691083,-15.040375,4.582502,0.0,49.842907,24.04118,347.0,NaN,4.536,18.0,28.7,13 / 13,437028,2020-03-20 16:45:10:352
2.528277,-14.499286,-4.88896,0.0,49.842907,24.04118,347.0,NaN,4.536,18.0,28.7,13 / 13,437528,2020-03-20 16:45:10:852
-0.397437,-8.09719,-8.614338,0.0,49.842907,24.04118,347.0,NaN,4.536,18.0,28.7,13 / 13,438029,2020-03-20 16:45:11:353
6.402096,-12.741941,-3.361459,0.0,49.842907,24.04118,347.0,NaN,4.536,18.0,28.7,13 / 13,438528,2020-03-20 16:45:11:852
-2.676717,-8.173804,-6.517017,0.0,49.842907,24.04118,347.0,NaN,4.536,18.0,28.7,13 / 13,439028,2020-03-20 16:45:12:352
7.374141,-12.488156,-2.566584,0.0,49.842907,24.04118,347.0,NaN,4.536,18.0,28.7,13 / 13,439529,2020-03-20 16:45:12:853
0.507571,-3.500323,-2.106897,0.0,49.842907,24.04118,347.0,NaN,4.536,18.0,28.7,13 / 13,440029,2020-03-20 16:45:13:353
1.972822,-9.691729,2.231396,0.0,49.842907,24.04118,347.0,NaN,4.536,18.0,28.7,13 / 13,440528,2020-03-20 16:45:13:852
1.599327,-5.956774,3.77805,0.0,49.842907,24.04118,347.0,NaN,4.536,18.0,28.7,13 / 13,441028,2020-03-20 16:45:14:352
4.812346,-11.405977,-6.157887,0.0,49.842907,24.04118,347.0,NaN,4.536,18.0,28.7,13 / 13,441529,2020-03-20 16:45:14:853
-6.833051,-19.570204,-1.766921,0.0,49.842907,24.04118,347.0,NaN,4.536,18.0,28.7,13 / 13,442029,2020-03-20 16:45:15:353
-9.241618,4.534618,-4.304775,0.0,49.842907,24.04118,347.0,NaN,4.536,18.0,28.7,13 / 13,442528,2020-03-20 16:45:15:852
-3.754108,-15.428236,0.177171,0.0,49.842907,24.04118,347.0,NaN,4.536,18.0,28.7,13 / 13,443028,2020-03-20 16:45:16:352
-7.292738,3.112462,-2.178723,0.0,49.842907,24.04118,347.0,NaN,4.536,18.0,28.7,13 / 13,443529,2020-03-20 16:45:16:853
6.272809,-14.618996,-4.01747,0.0,49.842907,24.04118,347.0,NaN,4.536,18.0,28.7,13 / 13,444029,2020-03-20 16:45:17:353
-0.608127,-9.500193,-4.711789,0.0,49.842907,24.04118,347.0,NaN,4.536,18.0,28.7,13 / 13,444529,2020-03-20 16:45:17:853
-1.383848,-10.448297,-2.1883,0.0,49.842907,24.04118,347.0,NaN,4.536,18.0,28.7,13 / 13,445029,2020-03-20 16:45:18:353
-3.342306,-0.967257,4.419697,0.0,49.842907,24.04118,347.0,NaN,4.536,18.0,28.7,13 / 13,445528,2020-03-20 16:45:18:852
-1.374272,-6.335057,-0.924162,0.0,49.842907,24.04118,347.0,NaN,4.536,18.0,28.7,13 / 13,446028,2020-03-20 16:45:19:352
-0.766144,-12.29662,0.914585,0.0,49.842907,24.04118,347.0,NaN,4.536,18.0,28.7,13 / 13,446529,2020-03-20 16:45:19:853
-1.240196,-6.358999,-0.062249,0.0,49.842907,24.04118,347.0,NaN,4.536,18.0,28.7,13 / 13,447029,2020-03-20 16:45:20:353
1.963245,-9.208099,0.21069,0.0,49.842907,24.04118,347.0,NaN,4.536,18.0,28.7,13 / 13,447528,2020-03-20 16:45:20:852
-1.584961,-14.437037,4.673482,0.0,49.842907,24.04118,347.0,NaN,4.536,18.0,28.7,13 / 13,448028,2020-03-20 16:45:21:352
2.504335,-16.874334,-7.383718,0.0,49.842907,24.04118,347.0,NaN,4.536,18.0,28.7,13 / 13,448529,2020-03-20 16:45:21:853
-0.536301,-4.903325,-9.203311,0.0,49.842907,24.04118,347.0,NaN,4.536,18.0,28.7,13 / 13,449029,2020-03-20 16:45:22:353
4.333505,-12.129025,-8.379706,0.0,49.842907,24.04118,347.0,NaN,4.536,18.0,28.7,13 / 13,449528,2020-03-20 16:45:22:852
-1.115698,-1.235408,2.15957,0.0,49.842907,24.04118,347.0,NaN,4.536,18.0,28.7,13 / 13,450029,2020-03-20 16:45:23:353
4.223372,-7.134721,-0.521936,0.0,49.842907,24.04118,347.0,NaN,4.536,18.0,28.7,13 / 13,450529,2020-03-20 16:45:23:853
7.038953,-7.771579,0.483629,0.0,49.842907,24.04118,347.0,NaN,4.536,18.0,28.7,13 / 13,451029,2020-03-20 16:45:24:353
2.992752,-8.480263,1.283292,0.0,49.842907,24.04118,347.0,NaN,4.536,18.0,28.7,13 / 13,451528,2020-03-20 16:45:24:852
2.044648,-8.379706,2.571373,0.0,49.842907,24.04118,347.0,NaN,4.536,18.0,28.7,13 / 13,452028,2020-03-20 16:45:25:352
3.711013,-13.862428,-4.204218,0.0,49.842907,24.04118,347.0,NaN,4.536,18.0,28.7,13 / 13,452529,2020-03-20 16:45:25:853
-7.374141,-17.056293,0.110133,0.0,49.842907,24.04118,347.0,NaN,4.536,18.0,28.7,13 / 13,453028,2020-03-20 16:45:26:352
-4.237737,1.987187,20.738573,0.0,49.842907,24.04118,347.0,NaN,4.536,18.0,28.7,13 / 13,453528,2020-03-20 16:45:26:852
-1.810016,-13.709199,-9.998186,0.0,49.842907,24.04118,347.0,NaN,4.536,18.0,28.7,13 / 13,454029,2020-03-20 16:45:27:353
-1.086968,-18.602947,-13.900735,0.0,49.842907,24.04118,347.0,NaN,4.536,18.0,28.7,13 / 13,454529,2020-03-20 16:45:27:853
-0.636858,-8.422802,1.206678,0.0,49.842907,24.04118,347.0,NaN,4.536,18.0,28.7,13 / 13,455028,2020-03-20 16:45:28:352
-4.884171,-3.284845,3.303998,0.0,49.842907,24.04118,347.0,NaN,4.536,18.0,28.7,13 / 13,455528,2020-03-20 16:45:28:852
0.756568,-10.199299,-5.535394,0.0,49.842907,24.04118,347.0,NaN,4.536,18.0,28.7,13 / 13,456028,2020-03-20 16:45:29:352
-4.256891,-1.086968,4.232949,0.0,49.842907,24.04118,347.0,NaN,4.536,18.0,28.7,13 / 13,456529,2020-03-20 16:45:29:853
-2.331952,-5.856217,-2.853888,0.0,49.842907,24.04118,347.0,NaN,4.536,18.0,28.7,13 / 13,457028,2020-03-20 16:45:30:352
4.285621,-8.451532,0.100556,0.0,49.842907,24.04118,347.0,NaN,4.536,18.0,28.7,13 / 13,457528,2020-03-20 16:45:30:852
1.393425,-17.357962,2.925715,0.0,49.842907,24.04118,347.0,NaN,4.536,18.0,28.7,13 / 13,458029,2020-03-20 16:45:31:353
-0.617704,-14.226347,-3.983951,0.0,49.842907,24.04118,347.0,NaN,4.536,18.0,28.7,13 / 13,458529,2020-03-20 16:45:31:853
-2.513912,-12.186486,-7.603985,0.0,49.842907,24.04118,347.0,NaN,4.536,18.0,28.7,13 / 13,459028,2020-03-20 16:45:32:352
6.694188,-12.378023,0.837971,0.0,49.842907,24.04118,347.0,NaN,4.536,18.0,28.7,13 / 13,459528,2020-03-20 16:45:32:852
1.565808,-23.99469,-9.797073,0.0,49.842907,24.04118,347.0,NaN,4.536,18.0,28.7,13 / 13,460029,2020-03-20 16:45:33:353
4.386178,-13.292608,2.135628,0.0,49.842907,24.04118,347.0,NaN,4.536,18.0,28.7,13 / 13,460528,2020-03-20 16:45:33:852
-1.900996,-15.375564,-12.492945,0.0,49.842907,24.04118,347.0,NaN,4.536,18.0,28.7,13 / 13,461028,2020-03-20 16:45:34:352
0.612916,-8.370129,0.593762,0.0,49.842907,24.04118,347.0,NaN,4.536,18.0,28.7,13 / 13,461529,2020-03-20 16:45:34:853
-1.029507,-3.184288,3.878607,0.0,49.842907,24.04118,347.0,NaN,4.536,18.0,28.7,13 / 13,462029,2020-03-20 16:45:35:353
2.652776,-9.5385,-0.766144,0.0,49.842907,24.04118,347.0,NaN,4.536,18.0,28.7,13 / 13,462528,2020-03-20 16:45:35:852
-6.124367,-18.215086,-0.972046,0.0,49.842907,24.04118,347.0,NaN,4.536,18.0,28.7,13 / 13,463028,2020-03-20 16:45:36:352
-8.432379,6.828264,-8.145074,0.0,49.842907,24.04118,347.0,NaN,4.536,18.0,28.7,13 / 13,463528,2020-03-20 16:45:36:852
-2.073379,-11.832145,0.847547,0.0,49.842907,24.04118,347.0,NaN,4.536,18.0,28.7,13 / 13,464028,2020-03-20 16:45:37:352
-2.748543,-10.927136,14.202404,0.0,49.842907,24.04118,347.0,NaN,4.536,18.0,28.7,13 / 13,464529,2020-03-20 16:45:37:853
3.184288,-16.275784,-4.46758,0.0,49.842907,24.04118,347.0,NaN,4.536,18.0,28.7,13 / 13,465029,2020-03-20 16:45:38:353
-2.437297,-7.900865,-8.384495,0.0,49.842907,24.04118,347.0,NaN,4.536,18.0,28.7,13 / 13,465528,2020-03-20 16:45:38:852
5.420473,-11.918336,-7.733271,0.0,49.842907,24.04118,347.0,NaN,4.536,18.0,28.7,13 / 13,466028,2020-03-20 16:45:39:352
-1.781286,-1.086968,3.265691,0.0,49.842907,24.04118,347.0,NaN,4.536,18.0,28.7,13 / 13,466529,2020-03-20 16:45:39:853
4.616021,-8.039729,0.143652,0.0,49.842907,24.04118,347.0,NaN,4.536,18.0,28.7,13 / 13,467029,2020-03-20 16:45:40:353
3.65834,-6.574477,1.70946,0.0,49.842907,24.04118,347.0,NaN,4.536,18.0,28.7,13 / 13,467528,2020-03-20 16:45:40:852
1.747767,-7.513005,0.799663,0.0,49.842907,24.04118,347.0,NaN,4.536,18.0,28.7,13 / 13,468028,2020-03-20 16:45:41:352
1.810017,-5.530606,3.86903,0.0,49.842907,24.04118,347.0,NaN,4.536,18.0,28.7,13 / 13,468529,2020-03-20 16:45:41:853
5.856218,-10.261548,0.368707,0.0,49.842907,24.04118,347.0,NaN,4.536,18.0,28.7,13 / 13,469029,2020-03-20 16:45:42:353
-6.675034,-19.158401,-0.641646,0.0,49.842907,24.04118,347.0,NaN,4.536,18.0,28.7,13 / 13,469528,2020-03-20 16:45:42:852
-7.85777,2.815581,-9.854534,0.0,49.842907,24.04118,347.0,NaN,4.536,18.0,28.7,13 / 13,470028,2020-03-20 16:45:43:352
4.783615,-15.136143,-4.625597,0.0,49.842907,24.04118,347.0,NaN,4.536,18.0,28.7,13 / 13,470529,2020-03-20 16:45:43:853
-5.45878,-10.778696,-6.325481,0.0,49.842907,24.04118,347.0,NaN,4.536,18.0,28.7,13 / 13,471029,2020-03-20 16:45:44:353
1.68073,-9.212888,-4.434061,0.0,49.842907,24.04118,347.0,NaN,4.536,18.0,28.7,13 / 13,471529,2020-03-20 16:45:44:853
0.071826,-7.843405,-5.535394,0.0,49.842907,24.04118,347.0,NaN,4.536,18.0,28.7,13 / 13,472028,2020-03-20 16:45:45:352
5.090073,-11.712435,-7.800309,0.0,49.842907,24.04118,347.0,NaN,4.536,18.0,28.7,13 / 13,472528,2020-03-20 16:45:45:852
-2.169147,-0.684742,4.261679,0.0,49.842907,24.04118,347.0,NaN,4.536,18.0,28.7,13 / 13,473028,2020-03-20 16:45:46:352
-0.339977,-6.200982,-0.114922,0.0,49.842907,24.04118,347.0,NaN,4.536,18.0,28.7,13 / 13,473529,2020-03-20 16:45:46:853
7.685388,-7.896077,0.531513,0.0,49.842907,24.04118,347.0,NaN,4.536,18.0,28.7,13 / 13,474028,2020-03-20 16:45:47:352
1.489194,-18.679562,5.353435,0.0,49.842907,24.04118,347.0,NaN,4.536,18.0,28.7,13 / 13,474529,2020-03-20 16:45:47:853
2.336741,-15.777789,-2.106897,0.0,49.842907,24.04118,347.0,NaN,4.536,18.0,28.7,13 / 13,475029,2020-03-20 16:45:48:353
0.186748,-7.546523,-7.503428,0.0,49.842907,24.04118,347.0,NaN,4.536,18.0,28.7,13 / 13,475528,2020-03-20 16:45:48:852
-1.082179,-15.581465,6.138734,0.0,49.842907,24.04118,347.0,NaN,4.536,18.0,28.7,13 / 13,476028,2020-03-20 16:45:49:352
0.124498,-35.735855,-9.983821,0.0,49.842907,24.04118,347.0,NaN,4.536,18.0,28.7,13 / 13,476529,2020-03-20 16:45:49:853
-3.600879,-15.021221,-14.992491,0.0,49.842907,24.04118,347.0,NaN,4.536,18.0,28.7,13 / 13,477029,2020-03-20 16:45:50:353
-3.251326,-17.496826,-12.684481,0.0,49.842907,24.04118,347.0,NaN,4.536,18.0,28.7,13 / 13,477528,2020-03-20 16:45:50:852
-0.536301,-8.283937,-0.272939,0.0,49.842907,24.04118,347.0,NaN,4.536,18.0,28.7,13 / 13,478028,2020-03-20 16:45:51:352
-3.615245,-2.432509,4.127604,0.0,49.842907,24.04118,347.0,NaN,4.536,18.0,28.7,13 / 13,478528,2020-03-20 16:45:51:852
-3.41892,-6.071695,-1.551443,0.0,49.842907,24.04118,347.0,NaN,4.536,18.0,28.7,13 / 13,479029,2020-03-20 16:45:52:353
2.078167,-10.730812,-0.670376,0.0,49.842907,24.04118,347.0,NaN,4.536,18.0,28.7,13 / 13,479528,2020-03-20 16:45:52:852
-6.143522,-14.743494,8.801085,0.0,49.842907,24.04118,347.0,NaN,4.536,18.0,28.7,13 / 13,480028,2020-03-20 16:45:53:352
5.90889,-7.900865,-0.004788,0.0,49.842907,24.04118,347.0,NaN,4.536,18.0,28.7,13 / 13,480529,2020-03-20 16:45:53:853
-1.312023,-17.171215,3.62961,0.0,49.842907,24.04118,347.0,NaN,4.536,18.0,28.7,13 / 13,481029,2020-03-20 16:45:54:353
-5.133168,-14.044387,2.691083,0.0,49.842907,24.04118,347.0,NaN,4.536,18.0,28.7,13 / 13,481528,2020-03-20 16:45:54:852
-4.687847,-25.04335,-17.429789,0.0,49.842907,24.04118,347.0,NaN,4.536,18.0,28.7,13 / 13,482028,2020-03-20 16:45:55:352
3.323152,-12.574347,3.706224,0.0,49.842907,24.04118,347.0,NaN,4.536,18.0,28.7,13 / 13,482528,2020-03-20 16:45:55:852
-4.19943,-13.651738,-12.751518,0.0,49.842907,24.04118,347.0,NaN,4.536,18.0,28.7,13 / 13,483029,2020-03-20 16:45:56:353
-0.464475,-8.729259,-1.086968,0.0,49.842907,24.04118,347.0,NaN,4.536,18.0,28.7,13 / 13,483529,2020-03-20 16:45:56:853
-1.814805,-3.342306,3.921703,0.0,49.842907,24.04118,347.0,NaN,4.536,18.0,28.7,13 / 13,484028,2020-03-20 16:45:57:352
-0.071826,-7.345411,-2.523488,0.0,49.842907,24.04118,347.0,NaN,4.536,18.0,28.7,13 / 13,484528,2020-03-20 16:45:57:852
-3.442862,-1.484405,4.462792,0.0,49.842907,24.04118,347.0,NaN,4.536,18.0,28.7,13 / 13,485029,2020-03-20 16:45:58:353
-4.721366,-6.014234,-1.695095,0.0,49.842907,24.04118,347.0,NaN,4.536,18.0,28.7,13 / 13,485528,2020-03-20 16:45:58:852
2.25055,-9.102755,0.756568,0.0,49.842907,24.04118,347.0,NaN,4.536,18.0,28.7,13 / 13,486028,2020-03-20 16:45:59:352
-2.379836,-18.133684,5.0374,0.0,49.842907,24.04118,347.0,NaN,4.536,18.0,28.7,13 / 13,486529,2020-03-20 16:45:59:853
-0.244209,-14.379576,8.384495,0.0,49.842907,24.04118,347.0,NaN,4.536,18.0,28.7,13 / 13,487029,2020-03-20 16:46:00:353
0.138864,-30.272285,-11.171345,0.0,49.842907,24.04118,347.0,NaN,4.536,18.0,28.7,13 / 13,487528,2020-03-20 16:46:00:852
0.842759,-13.718776,-5.391742,0.0,49.842907,24.04118,347.0,NaN,4.536,18.0,28.7,0 / 0,488028,2020-03-20 16:46:01:352
-2.509123,-23.678656,-25.517403,0.0,49.842907,24.04118,347.0,NaN,4.536,18.0,28.7,0 / 1,488529,2020-03-20 16:46:01:853
6.627151,-18.80406,-3.591303,0.0,49.842907,24.04118,347.0,NaN,4.536,18.0,28.7,0 / 1,489028,2020-03-20 16:46:02:352
-1.776498,-4.165911,-2.523488,0.0,49.842907,24.04118,347.0,NaN,4.536,18.0,28.7,0 / 2,489528,2020-03-20 16:46:02:852
6.924032,-12.028469,-4.410119,0.0,49.842907,24.04118,347.0,NaN,4.536,18.0,28.7,6 / 6,490029,2020-03-20 16:46:03:353
-1.25935,-1.326388,1.814805,0.0,49.842907,24.04118,347.0,NaN,4.536,18.0,28.7,6 / 6,490529,2020-03-20 16:46:03:853
3.969586,-8.15465,0.861913,0.0,49.84272,24.04233,352.0,NaN,0.792,13.0,66.6,16 / 16,491028,2020-03-20 16:46:04:352
2.509123,-4.61602,4.462792,0.0,49.84272,24.04233,352.0,NaN,0.792,13.0,66.6,16 / 16,491529,2020-03-20 16:46:04:853
4.046201,-10.831368,-2.375048,0.0,49.84272,24.04233,352.0,NaN,0.792,13.0,66.6,16 / 16,492028,2020-03-20 16:46:05:352
-8.164227,-20.781672,-1.297657,0.0,49.84272,24.04233,352.0,NaN,0.792,13.0,66.6,16 / 16,492529,2020-03-20 16:46:05:853
1.584962,-8.820239,-6.584054,0.0,49.84272,24.04233,352.0,NaN,0.792,13.0,66.6,16 / 16,493029,2020-03-20 16:46:06:353
-4.113238,-14.781801,-0.488417,0.0,49.84272,24.04233,352.0,NaN,0.792,13.0,66.6,16 / 16,493529,2020-03-20 16:46:06:853
-3.840299,-12.995727,9.92636,0.0,49.84272,24.04233,352.0,NaN,0.792,13.0,66.6,16 / 16,494028,2020-03-20 16:46:07:352
3.347094,-16.031574,-3.529053,0.0,49.84272,24.04233,352.0,NaN,0.792,13.0,66.6,16 / 16,494528,2020-03-20 16:46:07:852
0.162806,-19.057846,-9.064447,0.0,49.84272,24.04233,352.0,NaN,0.792,13.0,66.6,16 / 16,495029,2020-03-20 16:46:08:353
3.801993,-12.818556,4.405331,0.0,49.84272,24.04233,352.0,NaN,0.792,13.0,66.6,16 / 16,495528,2020-03-20 16:46:08:852
0.890643,-8.968679,-12.382812,0.0,49.84272,24.04233,352.0,NaN,0.792,13.0,66.6,16 / 16,496028,2020-03-20 16:46:09:352
-0.100556,-8.523358,1.580173,0.0,49.84272,24.04233,352.0,NaN,0.792,13.0,66.6,16 / 16,496529,2020-03-20 16:46:09:853
0.474052,-20.33635,-17.990032,0.0,49.84272,24.04233,352.0,NaN,0.792,13.0,66.6,16 / 16,497029,2020-03-20 16:46:10:353
4.027047,-9.639056,-7.302315,0.0,49.84272,24.04233,352.0,NaN,0.792,13.0,66.6,16 / 16,497528,2020-03-20 16:46:10:852
-3.825934,-1.900996,3.816358,0.0,49.84272,24.04233,352.0,NaN,0.792,13.0,66.6,16 / 16,498028,2020-03-20 16:46:11:352
0.11971,-7.73806,-0.349553,0.0,49.84272,24.04233,352.0,NaN,0.792,13.0,66.6,16 / 16,498529,2020-03-20 16:46:11:853
7.661446,-6.742072,-1.225831,0.0,49.84272,24.04233,352.0,NaN,0.792,13.0,66.6,16 / 16,499029,2020-03-20 16:46:12:353
11.631032,-19.22544,-2.06859,0.0,49.84272,24.04233,352.0,NaN,0.792,13.0,66.6,16 / 16,499529,2020-03-20 16:46:12:853
-6.660669,-17.520767,1.426944,0.0,49.84272,24.04233,352.0,NaN,0.792,13.0,66.6,16 / 16,500028,2020-03-20 16:46:13:352
-6.205771,-11.664551,14.676456,0.0,49.84272,24.04233,352.0,NaN,0.792,13.0,66.6,16 / 16,500529,2020-03-20 16:46:13:853
-3.485957,-14.992491,0.158017,0.0,49.84272,24.04233,352.0,NaN,0.792,13.0,66.6,16 / 16,501029,2020-03-20 16:46:14:353
-2.724601,-12.009315,15.916653,0.0,49.84272,24.04233,352.0,NaN,0.792,13.0,66.6,16 / 16,501528,2020-03-20 16:46:14:852
-1.23062,-15.016433,-3.533841,0.0,49.84272,24.04233,352.0,NaN,0.792,13.0,66.6,16 / 16,502029,2020-03-20 16:46:15:353
2.557007,-10.266336,1.905785,0.0,49.84272,24.04233,352.0,NaN,0.792,13.0,66.6,16 / 16,502529,2020-03-20 16:46:15:853
9.260772,-13.848063,3.821146,0.0,49.84272,24.04233,352.0,NaN,0.792,13.0,66.6,16 / 16,503028,2020-03-20 16:46:16:352
2.786851,-6.646304,-8.279149,0.0,49.84272,24.04233,352.0,NaN,0.792,13.0,66.6,16 / 16,503528,2020-03-20 16:46:16:852
0.972046,-7.972691,0.967258,0.0,49.84272,24.04233,352.0,NaN,0.792,13.0,66.6,16 / 16,504029,2020-03-20 16:46:17:353
-0.871489,-3.246537,3.691859,0.0,49.84272,24.04233,352.0,NaN,0.792,13.0,66.6,16 / 16,504529,2020-03-20 16:46:17:853
-0.268151,-11.942278,-1.201889,0.0,49.84272,24.04233,352.0,NaN,0.792,13.0,66.6,16 / 16,505028,2020-03-20 16:46:18:352
