ACCELEROMETER X (m/s²),ACCELEROMETER Y (m/s²),ACCELEROMETER Z (m/s²),PROXIMITY (m),LOCATION Latitude : ,LOCATION Longitude : ,LOCATION Altitude ( m),LOCATION Altitude-google ( m),LOCATION Speed ( Kmh),LOCATION Accuracy ( m),LOCATION ORIENTATION (°),Satellites in range,Time since start in ms ,YYYY-MO-DD HH-MI-SS_SSS
6.354212,1.752556,2.528277,8.0,49.844814,24.038313,343.0,NaN,1.836,14.0,0.0,0 / 1,27,2020-03-19 20:09:27:077
13.637373,-3.347094,5.013459,8.0,49.844814,24.038313,343.0,NaN,1.836,14.0,0.0,0 / 1,527,2020-03-19 20:09:27:577
8.130709,-4.055777,0.881066,8.0,49.844814,24.038313,343.0,NaN,1.836,14.0,0.0,0 / 4,1027,2020-03-19 20:09:28:077
13.259089,-0.052672,5.568913,8.0,49.844814,24.038313,343.0,NaN,1.836,14.0,0.0,0 / 4,1527,2020-03-19 20:09:28:577
6.287174,-3.217807,1.292869,8.0,49.844814,24.038313,343.0,NaN,1.836,14.0,0.0,11 / 11,2027,2020-03-19 20:09:29:077
6.976704,0.282516,0.071826,8.0,49.844814,24.038313,343.0,NaN,1.836,14.0,0.0,11 / 11,2527,2020-03-19 20:09:29:577
6.938397,-3.68707,3.380613,8.0,49.844814,24.038313,367.0,NaN,6.012,14.0,239.7,12 / 14,3032,2020-03-19 20:09:30:082
13.479356,-5.147533,3.591303,8.0,49.84805,24.041529,367.0,NaN,6.012,10.0,239.7,12 / 14,3527,2020-03-19 20:09:30:577
14.111424,-6.947973,2.882619,8.0,49.84805,24.041529,367.0,NaN,6.012,10.0,239.7,12 / 14,4027,2020-03-19 20:09:31:077
11.923124,-5.875371,3.428497,8.0,49.84805,24.041529,367.0,NaN,6.012,10.0,239.7,12 / 14,4527,2020-03-19 20:09:31:577
12.880805,-5.434838,2.470816,8.0,49.84805,24.041529,367.0,NaN,6.012,10.0,239.7,12 / 14,5027,2020-03-19 20:09:32:077
2.015918,-3.548207,-0.483629,8.0,49.84805,24.041529,367.0,NaN,6.012,10.0,239.7,12 / 14,5528,2020-03-19 20:09:32:578
7.929596,-1.594538,2.207454,8.0,49.84805,24.041529,367.0,NaN,6.012,10.0,239.7,12 / 14,6028,2020-03-19 20:09:33:078
9.069236,-5.746084,0.555455,8.0,49.84805,24.041529,367.0,NaN,6.012,10.0,239.7,12 / 14,6528,2020-03-19 20:09:33:578
16.788143,-6.665457,5.185841,8.0,49.84805,24.041529,367.0,NaN,6.012,10.0,239.7,12 / 14,7028,2020-03-19 20:09:34:078
7.101202,-4.821922,0.895431,8.0,49.84805,24.041529,367.0,NaN,6.012,10.0,239.7,12 / 14,7528,2020-03-19 20:09:34:578
7.651869,-3.428497,3.849877,8.0,49.84805,24.041529,367.0,NaN,6.012,10.0,239.7,12 / 14,8028,2020-03-19 20:09:35:078
14.824897,-3.768473,3.404555,8.0,49.84805,24.041529,367.0,NaN,6.012,10.0,239.7,12 / 14,8528,2020-03-19 20:09:35:578
12.162544,-10.122684,3.193865,8.0,49.84805,24.041529,367.0,NaN,6.012,10.0,239.7,12 / 14,9027,2020-03-19 20:09:36:077
17.013197,0.019154,-0.009577,8.0,49.84805,24.041529,367.0,NaN,6.012,10.0,239.7,12 / 14,9527,2020-03-19 20:09:36:577
12.914324,-9.279925,2.911349,8.0,49.84805,24.041529,367.0,NaN,6.012,10.0,239.7,12 / 14,10027,2020-03-19 20:09:37:077
10.012551,-6.464344,1.647211,8.0,49.84805,24.041529,367.0,NaN,6.012,10.0,239.7,12 / 14,10527,2020-03-19 20:09:37:577
18.363527,-1.867477,5.109226,8.0,49.84805,24.041529,367.0,NaN,6.012,10.0,239.7,12 / 14,11027,2020-03-19 20:09:38:077
3.064578,-3.41892,-1.331176,8.0,49.84805,24.041529,367.0,NaN,6.012,10.0,239.7,12 / 14,11528,2020-03-19 20:09:38:578
5.516241,-1.158794,-0.440533,8.0,49.84805,24.041529,367.0,NaN,6.012,10.0,239.7,12 / 14,12028,2020-03-19 20:09:39:078
8.317456,-5.195418,2.193089,8.0,49.84805,24.041529,367.0,NaN,6.012,10.0,239.7,12 / 14,12527,2020-03-19 20:09:39:577
11.927913,-6.143522,0.876278,8.0,49.84805,24.041529,367.0,NaN,6.012,10.0,239.7,12 / 14,13027,2020-03-19 20:09:40:077
9.811439,-6.947973,2.868254,8.0,49.84805,24.041529,367.0,NaN,6.012,10.0,239.7,12 / 14,13527,2020-03-19 20:09:40:577
9.591172,-8.729259,2.236184,8.0,49.84805,24.041529,367.0,NaN,6.012,10.0,239.7,12 / 14,14027,2020-03-19 20:09:41:077
16.49605,-2.710236,2.978387,8.0,49.84805,24.041529,367.0,NaN,6.012,10.0,239.7,12 / 14,14527,2020-03-19 20:09:41:577
4.314352,-3.907337,-1.685518,8.0,49.84805,24.041529,367.0,NaN,6.012,10.0,239.7,12 / 14,15028,2020-03-19 20:09:42:078
5.889736,-1.015141,-0.684742,8.0,49.84805,24.041529,367.0,NaN,6.012,10.0,239.7,12 / 14,15529,2020-03-19 20:09:42:579
9.299079,-6.464344,3.126828,8.0,49.84805,24.041529,367.0,NaN,6.012,10.0,239.7,12 / 14,16027,2020-03-19 20:09:43:077
12.277467,-5.60722,2.470816,8.0,49.84805,24.041529,367.0,NaN,6.012,10.0,239.7,12 / 14,16527,2020-03-19 20:09:43:577
17.396269,-4.994304,3.39019,8.0,49.84805,24.041529,367.0,NaN,6.012,10.0,239.7,12 / 14,17027,2020-03-19 20:09:44:077
11.042058,-5.315128,2.355895,8.0,49.84805,24.041529,367.0,NaN,6.012,10.0,239.7,12 / 14,17527,2020-03-19 20:09:44:577
18.119318,-2.035071,4.678271,8.0,49.84805,24.041529,367.0,NaN,6.012,10.0,239.7,12 / 14,18027,2020-03-19 20:09:45:077
5.281609,-4.596867,0.588974,8.0,49.84805,24.041529,367.0,NaN,6.012,10.0,239.7,12 / 14,18527,2020-03-19 20:09:45:577
5.525818,-1.910573,0.067038,8.0,49.84805,24.041529,367.0,NaN,6.012,10.0,239.7,12 / 14,19027,2020-03-19 20:09:46:077
10.026917,-4.836287,1.642422,8.0,49.84805,24.041529,367.0,NaN,6.012,10.0,239.7,12 / 14,19527,2020-03-19 20:09:46:577
12.612655,-3.409343,-0.201113,8.0,49.84805,24.041529,367.0,NaN,6.012,10.0,239.7,12 / 14,20027,2020-03-19 20:09:47:077
14.561535,-5.161899,3.404555,8.0,49.84805,24.041529,367.0,NaN,6.012,10.0,239.7,12 / 14,20527,2020-03-19 20:09:47:577
6.100426,-5.784391,1.699883,8.0,49.84805,24.041529,367.0,NaN,6.012,10.0,239.7,12 / 14,21027,2020-03-19 20:09:48:077
13.967772,-3.485957,2.25055,8.0,49.84805,24.041529,367.0,NaN,6.012,10.0,239.7,12 / 14,21527,2020-03-19 20:09:48:577
6.167464,-4.860229,-0.014365,8.0,49.84805,24.041529,367.0,NaN,6.012,10.0,239.7,12 / 14,22027,2020-03-19 20:09:49:077
4.745308,-2.413355,1.522712,8.0,49.84805,24.041529,367.0,NaN,6.012,10.0,239.7,12 / 14,22527,2020-03-19 20:09:49:577
8.288726,-3.169923,0.301669,8.0,49.84805,24.041529,367.0,NaN,6.012,10.0,239.7,12 / 14,23027,2020-03-19 20:09:50:077
17.956512,-9.428367,2.70066,8.0,49.84805,24.041529,367.0,NaN,6.012,10.0,239.7,12 / 14,23527,2020-03-19 20:09:50:577
12.74673,-6.440402,-0.440533,8.0,49.84805,24.041529,367.0,NaN,6.012,10.0,239.7,12 / 14,24027,2020-03-19 20:09:51:077
3.696648,-6.847417,1.699883,8.0,49.84805,24.041529,367.0,NaN,6.012,10.0,239.7,12 / 14,24527,2020-03-19 20:09:51:577
5.295975,-3.409343,1.824382,8.0,49.84805,24.041529,367.0,NaN,6.012,10.0,239.7,12 / 14,25027,2020-03-19 20:09:52:077
3.916914,-4.697424,0.114922,8.0,49.84805,24.041529,367.0,NaN,6.012,10.0,239.7,12 / 14,25527,2020-03-19 20:09:52:577
3.332729,-2.719813,2.331953,8.0,49.84805,24.041529,367.0,NaN,6.012,10.0,239.7,12 / 14,26027,2020-03-19 20:09:53:077
10.778696,-5.166687,1.307234,8.0,49.84805,24.041529,367.0,NaN,6.012,10.0,239.7,12 / 14,26527,2020-03-19 20:09:53:577
16.692375,-6.526593,3.615245,8.0,49.84805,24.041529,367.0,NaN,6.012,10.0,239.7,12 / 14,27027,2020-03-19 20:09:54:077
9.873688,-7.709329,3.500323,8.0,49.84805,24.041529,367.0,NaN,6.012,10.0,239.7,12 / 14,27528,2020-03-19 20:09:54:578
5.511452,-7.76679,0.924162,8.0,49.84805,24.041529,367.0,NaN,6.012,10.0,239.7,12 / 14,28027,2020-03-19 20:09:55:077
12.076353,-0.828394,4.031836,8.0,49.84805,24.041529,367.0,NaN,6.012,10.0,239.7,12 / 14,28527,2020-03-19 20:09:55:577
5.770026,-3.792415,-0.723049,8.0,49.84805,24.041529,367.0,NaN,6.012,10.0,239.7,12 / 14,29028,2020-03-19 20:09:56:078
8.336611,-3.323152,2.954445,8.0,49.84805,24.041529,367.0,NaN,6.012,10.0,239.7,12 / 14,29528,2020-03-19 20:09:56:578
5.717354,-4.357447,1.077391,8.0,49.84805,24.041529,367.0,NaN,6.012,10.0,239.7,12 / 14,30027,2020-03-19 20:09:57:077
10.175357,-0.612916,-1.125275,8.0,49.84805,24.041529,367.0,NaN,6.012,10.0,239.7,12 / 14,30527,2020-03-19 20:09:57:577
9.572019,-8.255207,3.366248,8.0,49.84805,24.041529,367.0,NaN,6.012,10.0,239.7,12 / 14,31027,2020-03-19 20:09:58:077
10.831368,-8.887277,4.271256,8.0,49.84805,24.041529,367.0,NaN,6.012,10.0,239.7,12 / 14,31527,2020-03-19 20:09:58:577
17.228676,-4.323928,0.699107,8.0,49.84805,24.041529,367.0,NaN,6.012,10.0,239.7,12 / 14,32027,2020-03-19 20:09:59:077
4.089296,-6.71813,1.426944,8.0,49.84805,24.041529,367.0,NaN,6.012,10.0,239.7,12 / 14,32527,2020-03-19 20:09:59:577
8.034941,-0.723049,4.127604,8.0,49.84805,24.041529,367.0,NaN,6.012,10.0,239.7,12 / 14,33027,2020-03-19 20:10:00:077
3.998317,-5.683835,-0.316035,8.0,49.84805,24.041529,367.0,NaN,6.012,10.0,239.7,12 / 14,33528,2020-03-19 20:10:00:578
3.706224,-1.891419,-0.067038,8.0,49.84805,24.041529,367.0,NaN,6.012,10.0,239.7,12 / 14,34027,2020-03-19 20:10:01:077
7.747637,-3.29921,0.512359,8.0,49.84805,24.041529,367.0,NaN,6.012,10.0,239.7,12 / 14,34528,2020-03-19 20:10:01:578
19.172768,-8.298302,-0.402226,8.0,49.84805,24.041529,367.0,NaN,6.012,10.0,239.7,12 / 14,35027,2020-03-19 20:10:02:077
12.674904,-7.043741,2.035071,8.0,49.84805,24.041529,367.0,NaN,6.012,10.0,239.7,12 / 14,35527,2020-03-19 20:10:02:577
1.929727,-6.742072,1.474828,8.0,49.84805,24.041529,367.0,NaN,6.012,10.0,239.7,12 / 14,36027,2020-03-19 20:10:03:077
10.390836,-1.94888,4.10845,8.0,49.84805,24.041529,367.0,NaN,6.012,10.0,239.7,12 / 14,36527,2020-03-19 20:10:03:577
5.93762,-2.96881,0.857124,8.0,49.84805,24.041529,367.0,NaN,6.012,10.0,239.7,12 / 14,37027,2020-03-19 20:10:04:077
9.749189,-1.824382,1.651999,8.0,49.84805,24.041529,367.0,NaN,6.012,10.0,239.7,12 / 14,37527,2020-03-19 20:10:04:577
5.592855,-3.519476,-2.964022,8.0,49.84805,24.041529,367.0,NaN,6.012,10.0,239.7,12 / 14,38027,2020-03-19 20:10:05:077
15.241488,-0.866701,1.403002,8.0,49.84805,24.041529,367.0,NaN,6.012,10.0,239.7,12 / 14,38527,2020-03-19 20:10:05:577
10.764331,-7.594407,2.135628,8.0,49.84805,24.041529,367.0,NaN,6.012,10.0,239.7,12 / 14,39027,2020-03-19 20:10:06:077
11.09473,-5.305551,0.770933,8.0,49.84805,24.041529,367.0,NaN,6.012,10.0,239.7,12 / 14,39527,2020-03-19 20:10:06:577
13.086706,-4.764461,4.376601,8.0,49.84805,24.041529,367.0,NaN,6.012,10.0,239.7,12 / 14,40027,2020-03-19 20:10:07:077
5.702989,-4.764461,1.154005,8.0,49.84805,24.041529,367.0,NaN,6.012,10.0,239.7,12 / 14,40527,2020-03-19 20:10:07:577
7.805098,-0.493206,-2.212242,8.0,49.84805,24.041529,367.0,NaN,6.012,10.0,239.7,12 / 14,41027,2020-03-19 20:10:08:077
6.555324,-3.835511,1.25935,8.0,49.84805,24.041529,367.0,NaN,6.012,10.0,239.7,12 / 14,41528,2020-03-19 20:10:08:578
11.597513,0.526724,-3.682282,8.0,49.84805,24.041529,367.0,NaN,6.012,10.0,239.7,12 / 14,42027,2020-03-19 20:10:09:077
11.760319,-7.694964,2.796428,8.0,49.84805,24.041529,367.0,NaN,6.012,10.0,239.7,12 / 14,42527,2020-03-19 20:10:09:577
10.931925,-9.576807,4.247314,8.0,49.84805,24.041529,367.0,NaN,6.012,10.0,239.7,12 / 14,43027,2020-03-19 20:10:10:077
13.857639,-5.056554,3.303998,8.0,49.84805,24.041529,367.0,NaN,6.012,10.0,239.7,12 / 14,43527,2020-03-19 20:10:10:577
5.023035,-5.861006,0.392649,8.0,49.84805,24.041529,367.0,NaN,6.012,10.0,239.7,12 / 14,44027,2020-03-19 20:10:11:077
6.445191,-2.54743,-0.651223,8.0,49.84805,24.041529,367.0,NaN,6.012,10.0,239.7,12 / 14,44527,2020-03-19 20:10:11:577
9.346964,-6.473921,1.896208,8.0,49.84805,24.041529,367.0,NaN,6.012,10.0,239.7,12 / 14,45027,2020-03-19 20:10:12:077
8.633492,-0.397437,-1.23062,8.0,49.84805,24.041529,367.0,NaN,6.012,10.0,239.7,12 / 14,45527,2020-03-19 20:10:12:577
12.449849,-7.206547,3.490746,8.0,49.84805,24.041529,367.0,NaN,6.012,10.0,239.7,12 / 14,46027,2020-03-19 20:10:13:077
16.931795,-4.908113,2.60968,8.0,49.84805,24.041529,367.0,NaN,6.012,10.0,239.7,12 / 14,46527,2020-03-19 20:10:13:577
16.304514,-6.924031,1.173159,8.0,49.84805,24.041529,367.0,NaN,6.012,10.0,239.7,12 / 14,47028,2020-03-19 20:10:14:078
0.440533,-6.382941,-0.794875,8.0,49.84805,24.041529,367.0,NaN,6.012,10.0,239.7,12 / 14,47528,2020-03-19 20:10:14:578
6.545748,-2.365471,1.642422,8.0,49.84805,24.041529,367.0,NaN,6.012,10.0,239.7,12 / 14,48027,2020-03-19 20:10:15:077
10.290278,-4.774038,0.397437,8.0,49.84805,24.041529,367.0,NaN,6.012,10.0,239.7,12 / 14,48527,2020-03-19 20:10:15:577
17.640478,-4.788403,0.253785,8.0,49.84805,24.041529,367.0,NaN,6.012,10.0,239.7,12 / 14,49027,2020-03-19 20:10:16:077
9.619903,-4.252102,0.23942,8.0,49.84805,24.041529,367.0,NaN,6.012,10.0,239.7,12 / 14,49527,2020-03-19 20:10:16:577
15.571888,-9.246407,2.116475,8.0,49.84805,24.041529,367.0,NaN,6.012,10.0,239.7,12 / 14,50027,2020-03-19 20:10:17:077
13.230358,-4.544194,1.412579,8.0,49.84805,24.041529,367.0,NaN,6.012,10.0,239.7,12 / 14,50528,2020-03-19 20:10:17:578
2.336741,-5.707777,1.460463,8.0,49.84805,24.041529,367.0,NaN,6.012,10.0,239.7,12 / 14,51027,2020-03-19 20:10:18:077
8.360553,-2.844312,1.201889,8.0,49.84805,24.041529,367.0,NaN,6.012,10.0,239.7,12 / 14,51528,2020-03-19 20:10:18:578
7.450756,-4.970362,1.355118,8.0,49.84805,24.041529,367.0,NaN,6.012,10.0,239.7,12 / 14,52027,2020-03-19 20:10:19:077
13.532028,-0.296881,-0.430956,8.0,49.84805,24.041529,367.0,NaN,6.012,10.0,239.7,12 / 14,52527,2020-03-19 20:10:19:577
12.521675,-8.111555,3.155558,8.0,49.84805,24.041529,367.0,NaN,6.012,10.0,239.7,12 / 14,53028,2020-03-19 20:10:20:078
13.163321,-7.383718,2.27928,8.0,49.84805,24.041529,367.0,NaN,6.012,10.0,239.7,12 / 14,53527,2020-03-19 20:10:20:577
15.701175,-4.256891,1.656788,8.0,49.84805,24.041529,367.0,NaN,6.012,10.0,239.7,12 / 14,54027,2020-03-19 20:10:21:077
7.115568,-9.643845,1.024718,8.0,49.84805,24.041529,367.0,NaN,6.012,10.0,239.7,12 / 14,54528,2020-03-19 20:10:21:578
16.927006,-3.845088,4.19943,8.0,49.84805,24.041529,367.0,NaN,6.012,10.0,239.7,12 / 14,55027,2020-03-19 20:10:22:077
6.11958,-3.739743,-0.301669,8.0,49.84805,24.041529,367.0,NaN,6.012,10.0,239.7,12 / 14,55528,2020-03-19 20:10:22:578
5.492299,-3.399766,0.502782,8.0,49.84805,24.041529,367.0,NaN,6.012,10.0,239.7,12 / 14,56028,2020-03-19 20:10:23:078
9.246407,-3.567361,0.92895,8.0,49.84805,24.041529,367.0,NaN,6.012,10.0,239.7,12 / 14,56527,2020-03-19 20:10:23:577
12.397177,-0.651223,-1.991976,8.0,49.84805,24.041529,367.0,NaN,6.012,10.0,239.7,12 / 14,57028,2020-03-19 20:10:24:078
11.793838,-4.970362,1.04866,8.0,49.84805,24.041529,367.0,NaN,6.012,10.0,239.7,12 / 14,57527,2020-03-19 20:10:24:577
4.252103,-7.503428,-1.795651,8.0,49.84805,24.041529,367.0,NaN,6.012,10.0,239.7,12 / 14,58027,2020-03-19 20:10:25:077
18.004396,-1.063026,5.118803,8.0,49.84805,24.041529,367.0,NaN,6.012,10.0,239.7,12 / 14,58527,2020-03-19 20:10:25:577
4.865018,-5.856217,1.063026,8.0,49.84805,24.041529,367.0,NaN,6.012,10.0,239.7,12 / 14,59027,2020-03-19 20:10:26:077
12.741941,-3.438074,2.145205,8.0,49.84805,24.041529,367.0,NaN,6.012,10.0,239.7,12 / 14,59527,2020-03-19 20:10:26:577
6.517017,-5.267244,1.690306,8.0,49.84805,24.041529,367.0,NaN,6.012,10.0,239.7,12 / 14,60027,2020-03-19 20:10:27:077
10.515334,0.272939,-3.375824,8.0,49.84805,24.041529,367.0,NaN,6.012,10.0,239.7,12 / 14,60527,2020-03-19 20:10:27:577
9.528923,-9.14585,2.705448,8.0,49.84805,24.041529,367.0,NaN,6.012,10.0,239.7,12 / 14,61028,2020-03-19 20:10:28:078
14.867992,-11.085154,6.80911,8.0,49.84805,24.041529,367.0,NaN,6.012,10.0,239.7,12 / 14,61527,2020-03-19 20:10:28:577
17.578228,-10.745177,4.692636,8.0,49.84805,24.041529,367.0,NaN,6.012,10.0,239.7,12 / 14,62027,2020-03-19 20:10:29:077
4.510676,-6.191406,0.751779,8.0,49.84805,24.041529,367.0,NaN,6.012,10.0,239.7,0 / 0,62527,2020-03-19 20:10:29:577
18.090588,0.181959,6.770803,8.0,49.84805,24.041529,367.0,NaN,6.012,10.0,239.7,0 / 1,63027,2020-03-19 20:10:30:077
8.772355,-5.951985,0.521936,8.0,49.84805,24.041529,367.0,NaN,6.012,10.0,239.7,0 / 1,63528,2020-03-19 20:10:30:578
19.397821,-2.049437,2.877831,8.0,49.84805,24.041529,367.0,NaN,6.012,10.0,239.7,12 / 12,64027,2020-03-19 20:10:31:077
5.592855,-5.224148,0.833182,8.0,49.84805,24.041529,367.0,NaN,6.012,10.0,239.7,12 / 12,64527,2020-03-19 20:10:31:577
8.710106,-1.077391,-0.847547,8.0,49.84805,24.041529,367.0,NaN,6.012,10.0,239.7,23 / 29,65027,2020-03-19 20:10:32:077
7.101202,-4.984728,0.612916,8.0,49.84852,24.040956,364.0,NaN,5.364,8.0,336.9,23 / 30,65527,2020-03-19 20:10:32:577
15.389929,-8.714894,3.122039,8.0,49.84852,24.040956,364.0,NaN,5.364,8.0,336.9,23 / 30,66027,2020-03-19 20:10:33:077
13.297397,-4.668693,-0.339977,8.0,49.84852,24.040956,364.0,NaN,5.364,8.0,336.9,23 / 30,66527,2020-03-19 20:10:33:577
7.580043,-5.6982,2.15957,8.0,49.84852,24.040956,364.0,NaN,5.364,8.0,336.9,23 / 30,67027,2020-03-19 20:10:34:077
13.019669,-2.475604,0.3304,8.0,49.84852,24.040956,364.0,NaN,5.364,8.0,336.9,23 / 30,67527,2020-03-19 20:10:34:577
7.441179,-6.392518,2.035071,8.0,49.84852,24.040956,364.0,NaN,5.364,8.0,336.9,23 / 30,68027,2020-03-19 20:10:35:077
13.704411,-2.073379,3.648764,8.0,49.84852,24.040956,364.0,NaN,5.364,8.0,336.9,23 / 30,68527,2020-03-19 20:10:35:577
5.377377,-4.419696,-0.004788,8.0,49.84852,24.040956,364.0,NaN,5.364,8.0,336.9,23 / 30,69027,2020-03-19 20:10:36:077
7.694965,0.067038,-0.311246,8.0,49.84852,24.040956,364.0,NaN,5.364,8.0,336.9,23 / 30,69527,2020-03-19 20:10:36:577
7.412449,-5.473145,0.23942,8.0,49.84852,24.040956,364.0,NaN,5.364,8.0,336.9,23 / 30,70027,2020-03-19 20:10:37:077
12.832921,-8.494628,0.56982,8.0,49.84852,24.040956,364.0,NaN,5.364,8.0,336.9,23 / 30,70528,2020-03-19 20:10:37:578
14.178462,-5.841852,1.790863,8.0,49.84852,24.040956,364.0,NaN,5.364,8.0,336.9,23 / 30,71027,2020-03-19 20:10:38:077
14.781801,-5.770026,2.078167,8.0,49.84852,24.040956,364.0,NaN,5.364,8.0,336.9,23 / 30,71527,2020-03-19 20:10:38:577
15.02601,-7.948749,3.8403,8.0,49.84852,24.040956,364.0,NaN,5.364,8.0,336.9,23 / 30,72027,2020-03-19 20:10:39:077
4.089296,-5.075707,0.35913,8.0,49.84852,24.040956,364.0,NaN,5.364,8.0,336.9,23 / 30,72527,2020-03-19 20:10:39:577
3.112462,-1.580173,-1.130063,8.0,49.84852,24.040956,364.0,NaN,5.364,8.0,336.9,23 / 30,73027,2020-03-19 20:10:40:077
9.519346,-2.786851,-0.938527,8.0,49.84852,24.040956,364.0,NaN,5.364,8.0,336.9,23 / 30,73527,2020-03-19 20:10:40:577
14.820108,-5.650316,-0.287304,8.0,49.84852,24.040956,364.0,NaN,5.364,8.0,336.9,23 / 30,74027,2020-03-19 20:10:41:077
12.966996,-5.334281,0.699107,8.0,49.84852,24.040956,364.0,NaN,5.364,8.0,336.9,23 / 30,74527,2020-03-19 20:10:41:577
7.144298,-6.454767,1.096544,8.0,49.84852,24.040956,364.0,NaN,5.364,8.0,336.9,23 / 30,75027,2020-03-19 20:10:42:077
12.440272,-5.468356,1.757344,8.0,49.84852,24.040956,364.0,NaN,5.364,8.0,336.9,23 / 30,75527,2020-03-19 20:10:42:577
6.967127,-6.971915,-0.790087,8.0,49.84852,24.040956,364.0,NaN,5.364,8.0,336.9,23 / 30,76027,2020-03-19 20:10:43:077
16.323668,-1.517924,2.925715,8.0,49.84852,24.040956,364.0,NaN,5.364,8.0,336.9,23 / 30,76527,2020-03-19 20:10:43:577
4.113238,-3.873818,0.919373,8.0,49.84852,24.040956,364.0,NaN,5.364,8.0,336.9,23 / 30,77027,2020-03-19 20:10:44:077
7.651869,-1.130063,-1.786074,8.0,49.84852,24.040956,364.0,NaN,5.364,8.0,336.9,23 / 30,77527,2020-03-19 20:10:44:577
11.228806,-7.795521,3.102886,8.0,49.84852,24.040956,364.0,NaN,5.364,8.0,336.9,23 / 30,78027,2020-03-19 20:10:45:077
16.04594,-3.782838,4.084508,8.0,49.84852,24.040956,364.0,NaN,5.364,8.0,336.9,23 / 30,78527,2020-03-19 20:10:45:577
16.486473,-3.083732,2.341529,8.0,49.84852,24.040956,364.0,NaN,5.364,8.0,336.9,23 / 30,79027,2020-03-19 20:10:46:077
9.92636,-7.876923,1.479617,8.0,49.84852,24.040956,364.0,NaN,5.364,8.0,336.9,23 / 30,79527,2020-03-19 20:10:46:577
18.44493,-2.954445,4.687847,8.0,49.84852,24.040956,364.0,NaN,5.364,8.0,336.9,23 / 30,80027,2020-03-19 20:10:47:077
4.754885,-4.314351,0.229843,8.0,49.84852,24.040956,364.0,NaN,5.364,8.0,336.9,23 / 30,80527,2020-03-19 20:10:47:577
4.568137,-1.187524,-1.072602,8.0,49.84852,24.040956,364.0,NaN,5.364,8.0,336.9,23 / 30,81027,2020-03-19 20:10:48:077
8.374918,-4.668693,1.766921,8.0,49.84852,24.040956,364.0,NaN,5.364,8.0,336.9,23 / 30,81527,2020-03-19 20:10:48:577
14.772224,-5.27682,-0.622492,8.0,49.84852,24.040956,364.0,NaN,5.364,8.0,336.9,23 / 30,82028,2020-03-19 20:10:49:078
12.694057,-4.505887,0.497994,8.0,49.84852,24.040956,364.0,NaN,5.364,8.0,336.9,23 / 30,82527,2020-03-19 20:10:49:577
3.27048,-6.694188,1.656788,8.0,49.84852,24.040956,364.0,NaN,5.364,8.0,336.9,23 / 30,83028,2020-03-19 20:10:50:078
13.120225,-3.98874,1.723825,8.0,49.84852,24.040956,364.0,NaN,5.364,8.0,336.9,23 / 30,83527,2020-03-19 20:10:50:577
4.912902,-7.905654,2.03986,8.0,49.84852,24.040956,364.0,NaN,5.364,8.0,336.9,23 / 30,84027,2020-03-19 20:10:51:077
7.321469,-2.561796,3.648764,8.0,49.84852,24.040956,364.0,NaN,5.364,8.0,336.9,23 / 30,84527,2020-03-19 20:10:51:577
8.552089,-4.884171,1.25935,8.0,49.84852,24.040956,364.0,NaN,5.364,8.0,336.9,23 / 30,85027,2020-03-19 20:10:52:077
15.524004,-3.840299,0.656011,8.0,49.84852,24.040956,364.0,NaN,5.364,8.0,336.9,23 / 30,85527,2020-03-19 20:10:52:577
13.488933,-5.865794,1.149217,8.0,49.84852,24.040956,364.0,NaN,5.364,8.0,336.9,23 / 30,86027,2020-03-19 20:10:53:077
4.43885,-6.23929,-0.612916,8.0,49.84852,24.040956,364.0,NaN,5.364,8.0,336.9,23 / 30,86527,2020-03-19 20:10:53:577
17.855959,-2.1883,5.971139,8.0,49.84852,24.040956,364.0,NaN,5.364,8.0,336.9,23 / 30,87028,2020-03-19 20:10:54:078
8.791509,-1.805228,2.207454,8.0,49.84852,24.040956,364.0,NaN,5.364,8.0,336.9,23 / 30,87527,2020-03-19 20:10:54:577
15.193604,-2.164358,5.176265,8.0,49.84852,24.040956,364.0,NaN,5.364,8.0,336.9,23 / 30,88027,2020-03-19 20:10:55:077
4.788404,-3.916914,1.623269,8.0,49.84852,24.040956,364.0,NaN,5.364,8.0,336.9,23 / 30,88527,2020-03-19 20:10:55:577
5.884948,0.526724,0.526724,8.0,49.84852,24.040956,364.0,NaN,5.364,8.0,336.9,23 / 30,89028,2020-03-19 20:10:56:078
8.901642,-2.39899,2.001553,8.0,49.84852,24.040956,364.0,NaN,5.364,8.0,336.9,23 / 30,89528,2020-03-19 20:10:56:578
16.28536,-4.362235,3.730166,8.0,49.84852,24.040956,364.0,NaN,5.364,8.0,336.9,23 / 30,90028,2020-03-19 20:10:57:078
13.072341,-4.596867,2.446874,8.0,49.84852,24.040956,364.0,NaN,5.364,8.0,336.9,23 / 30,90528,2020-03-19 20:10:57:578
8.346188,-5.24809,2.882619,8.0,49.84852,24.040956,364.0,NaN,5.364,8.0,336.9,23 / 30,91027,2020-03-19 20:10:58:077
14.595054,-5.023035,0.90022,8.0,49.84852,24.040956,364.0,NaN,5.364,8.0,336.9,23 / 30,91527,2020-03-19 20:10:58:577
5.559336,-7.393295,2.60968,8.0,49.84852,24.040956,364.0,NaN,5.364,8.0,336.9,23 / 30,92027,2020-03-19 20:10:59:077
11.597513,-2.566584,-1.355118,8.0,49.84852,24.040956,364.0,NaN,5.364,8.0,336.9,23 / 30,92527,2020-03-19 20:10:59:577
4.19943,-3.706224,2.049437,8.0,49.84852,24.040956,364.0,NaN,5.364,8.0,336.9,23 / 30,93027,2020-03-19 20:11:00:077
6.866571,2.145205,-0.593762,8.0,49.84852,24.040956,364.0,NaN,5.364,8.0,336.9,23 / 30,93527,2020-03-19 20:11:00:577
8.197747,-2.60968,3.552995,8.0,49.84852,24.040956,364.0,NaN,5.364,8.0,336.9,23 / 30,94027,2020-03-19 20:11:01:077
15.365987,-4.285621,3.107674,8.0,49.84852,24.040956,364.0,NaN,5.364,8.0,336.9,23 / 30,94527,2020-03-19 20:11:01:577
13.010092,-4.146757,0.526724,8.0,49.84852,24.040956,364.0,NaN,5.364,8.0,336.9,23 / 30,95027,2020-03-19 20:11:02:077
14.84405,-2.676717,3.280056,8.0,49.84852,24.040956,364.0,NaN,5.364,8.0,336.9,23 / 30,95527,2020-03-19 20:11:02:577
16.419436,-3.634398,1.455675,8.0,49.84852,24.040956,364.0,NaN,5.364,8.0,336.9,23 / 30,96028,2020-03-19 20:11:03:078
5.990293,-5.319916,2.954445,8.0,49.84852,24.040956,364.0,NaN,5.364,8.0,336.9,23 / 30,96527,2020-03-19 20:11:03:577
8.681376,0.617704,0.847547,8.0,49.84852,24.040956,364.0,NaN,5.364,8.0,336.9,23 / 30,97027,2020-03-19 20:11:04:077
7.096414,-2.42772,-6.952761,8.0,49.84852,24.040956,364.0,NaN,5.364,8.0,336.9,23 / 30,97527,2020-03-19 20:11:04:577
13.077129,-0.694318,0.464475,8.0,49.84852,24.040956,364.0,NaN,5.364,8.0,336.9,23 / 30,98027,2020-03-19 20:11:05:077
14.422671,-3.912125,0.885855,8.0,49.84852,24.040956,364.0,NaN,5.364,8.0,336.9,23 / 30,98527,2020-03-19 20:11:05:577
10.108319,-6.502651,1.623269,8.0,49.84852,24.040956,364.0,NaN,5.364,8.0,336.9,23 / 30,99027,2020-03-19 20:11:06:077
12.579136,-5.262455,1.297657,8.0,49.84852,24.040956,364.0,NaN,5.364,8.0,336.9,23 / 30,99528,2020-03-19 20:11:06:578
8.647857,-6.215348,2.164359,8.0,49.84852,24.040956,364.0,NaN,5.364,8.0,336.9,23 / 30,100027,2020-03-19 20:11:07:077
13.101071,-2.94008,2.552219,8.0,49.84852,24.040956,364.0,NaN,5.364,8.0,336.9,23 / 30,100527,2020-03-19 20:11:07:577
6.727707,-3.845088,2.212242,8.0,49.84852,24.040956,364.0,NaN,5.364,8.0,336.9,23 / 30,101027,2020-03-19 20:11:08:077
8.705317,0.871489,-0.316035,8.0,49.84852,24.040956,364.0,NaN,5.364,8.0,336.9,23 / 30,101528,2020-03-19 20:11:08:578
8.99741,-5.094861,3.591303,8.0,49.84852,24.040956,364.0,NaN,5.364,8.0,336.9,23 / 30,102028,2020-03-19 20:11:09:078
14.413095,-4.328717,1.144428,8.0,49.84852,24.040956,364.0,NaN,5.364,8.0,336.9,23 / 30,102528,2020-03-19 20:11:09:578
11.951855,-6.090849,2.331953,8.0,49.84852,24.040956,364.0,NaN,5.364,8.0,336.9,23 / 30,103027,2020-03-19 20:11:10:077
14.638149,-4.932055,4.673482,8.0,49.84852,24.040956,364.0,NaN,5.364,8.0,336.9,23 / 30,103527,2020-03-19 20:11:10:577
14.973337,-4.783615,0.756568,8.0,49.84852,24.040956,364.0,NaN,5.364,8.0,336.9,23 / 30,104027,2020-03-19 20:11:11:077
6.823475,-5.540182,2.633622,8.0,49.84852,24.040956,364.0,NaN,5.364,8.0,336.9,23 / 30,104528,2020-03-19 20:11:11:578
7.192182,-3.117251,2.456451,8.0,49.84852,24.040956,364.0,NaN,5.364,8.0,336.9,23 / 30,105027,2020-03-19 20:11:12:077
4.031836,-2.432509,2.772486,8.0,49.84852,24.040956,364.0,NaN,5.364,8.0,336.9,23 / 30,105527,2020-03-19 20:11:12:577
12.545617,-1.699883,2.087744,8.0,49.84852,24.040956,364.0,NaN,5.364,8.0,336.9,23 / 30,106027,2020-03-19 20:11:13:077
11.597513,-5.166687,1.005565,8.0,49.84852,24.040956,364.0,NaN,5.364,8.0,336.9,23 / 30,106528,2020-03-19 20:11:13:578
8.868123,-5.363012,2.03986,8.0,49.84852,24.040956,364.0,NaN,5.364,8.0,336.9,23 / 30,107028,2020-03-19 20:11:14:078
12.497733,-3.260903,2.06859,8.0,49.84852,24.040956,364.0,NaN,5.364,8.0,336.9,23 / 30,107527,2020-03-19 20:11:14:577
8.063671,-7.07726,0.584185,8.0,49.84852,24.040956,364.0,NaN,5.364,8.0,336.9,23 / 30,108027,2020-03-19 20:11:15:077
16.127342,-2.006341,7.307104,8.0,49.84852,24.040956,364.0,NaN,5.364,8.0,336.9,23 / 30,108527,2020-03-19 20:11:15:577
6.411672,-4.180276,2.470816,8.0,49.84852,24.040956,364.0,NaN,5.364,8.0,336.9,23 / 30,109027,2020-03-19 20:11:16:077
5.497087,-1.177947,-0.675165,8.0,49.84852,24.040956,364.0,NaN,5.364,8.0,336.9,23 / 30,109527,2020-03-19 20:11:16:577
8.868123,-4.3766,2.020706,8.0,49.84852,24.040956,364.0,NaN,5.364,8.0,336.9,23 / 30,110028,2020-03-19 20:11:17:078
14.116213,-7.460332,0.100556,8.0,49.84852,24.040956,364.0,NaN,5.364,8.0,336.9,23 / 30,110528,2020-03-19 20:11:17:578
13.627796,-3.643975,-0.076614,8.0,49.84852,24.040956,364.0,NaN,5.364,8.0,336.9,23 / 30,111028,2020-03-19 20:11:18:078
6.157887,-5.861006,2.983175,8.0,49.84852,24.040956,364.0,NaN,5.364,8.0,336.9,23 / 30,111527,2020-03-19 20:11:18:577
12.909535,-4.860229,1.082179,8.0,49.84852,24.040956,364.0,NaN,5.364,8.0,336.9,23 / 30,112027,2020-03-19 20:11:19:077
7.249643,-4.91769,2.75812,8.0,49.84852,24.040956,364.0,NaN,5.364,8.0,336.9,23 / 30,112527,2020-03-19 20:11:19:577
13.086706,0.181959,2.274492,8.0,49.84852,24.040956,364.0,NaN,5.364,8.0,336.9,23 / 30,113027,2020-03-19 20:11:20:077
4.448427,-2.806004,0.972046,8.0,49.84852,24.040956,364.0,NaN,5.364,8.0,336.9,23 / 30,113528,2020-03-19 20:11:20:578
8.939949,1.565808,-1.991976,8.0,49.84852,24.040956,364.0,NaN,5.364,8.0,336.9,23 / 30,114028,2020-03-19 20:11:21:078
9.050082,-6.363788,3.380613,8.0,49.84852,24.040956,364.0,NaN,5.364,8.0,336.9,23 / 30,114528,2020-03-19 20:11:21:578
16.108189,-3.193865,1.987187,8.0,49.84852,24.040956,364.0,NaN,5.364,8.0,336.9,23 / 30,115027,2020-03-19 20:11:22:077
14.997279,-3.806781,1.934515,8.0,49.84852,24.040956,364.0,NaN,5.364,8.0,336.9,23 / 30,115527,2020-03-19 20:11:22:577
12.818556,-3.68707,2.375048,8.0,49.84852,24.040956,364.0,NaN,5.364,8.0,336.9,23 / 30,116027,2020-03-19 20:11:23:077
15.739482,-2.202665,2.542642,8.0,49.84852,24.040956,364.0,NaN,5.364,8.0,336.9,23 / 30,116527,2020-03-19 20:11:23:577
6.646304,-4.932055,1.867477,8.0,49.84852,24.040956,364.0,NaN,5.364,8.0,336.9,23 / 30,117027,2020-03-19 20:11:24:077
6.746861,-1.728614,1.987187,8.0,49.84852,24.040956,364.0,NaN,5.364,8.0,336.9,23 / 30,117527,2020-03-19 20:11:24:577
6.454768,-1.719037,0.488417,8.0,49.84852,24.040956,364.0,NaN,5.364,8.0,336.9,23 / 30,118027,2020-03-19 20:11:25:077
11.75553,1.450886,-2.748543,8.0,49.84852,24.040956,364.0,NaN,5.364,8.0,336.9,23 / 30,118527,2020-03-19 20:11:25:577
11.923124,-4.041412,1.120486,8.0,49.84852,24.040956,364.0,NaN,5.364,8.0,336.9,23 / 30,119027,2020-03-19 20:11:26:077
10.433931,-7.311892,2.930503,8.0,49.84852,24.040956,364.0,NaN,5.364,8.0,336.9,23 / 30,119527,2020-03-19 20:11:26:577
12.119449,-3.169923,1.939303,8.0,49.84852,24.040956,364.0,NaN,5.364,8.0,336.9,23 / 30,120027,2020-03-19 20:11:27:077
8.063671,-6.584054,3.045425,8.0,49.84852,24.040956,364.0,NaN,5.364,8.0,336.9,23 / 30,120527,2020-03-19 20:11:27:577
14.480132,-2.169147,5.12838,8.0,49.84852,24.040956,364.0,NaN,5.364,8.0,336.9,23 / 30,121028,2020-03-19 20:11:28:078
4.908114,-4.994304,1.177947,8.0,49.84852,24.040956,364.0,NaN,5.364,8.0,336.9,23 / 30,121527,2020-03-19 20:11:28:577
4.783615,-0.445322,1.335965,8.0,49.84852,24.040956,364.0,NaN,5.364,8.0,336.9,23 / 30,122027,2020-03-19 20:11:29:077
8.810662,-1.810016,2.39899,8.0,49.84852,24.040956,364.0,NaN,5.364,8.0,336.9,23 / 30,122527,2020-03-19 20:11:29:577
13.120225,-0.124498,-1.493982,8.0,49.84852,24.040956,364.0,NaN,5.364,8.0,336.9,23 / 30,123027,2020-03-19 20:11:30:077
14.973337,-3.303998,0.651223,8.0,49.84852,24.040956,364.0,NaN,5.364,8.0,336.9,23 / 30,123527,2020-03-19 20:11:30:577
7.833828,-7.43639,1.47004,8.0,49.84852,24.040956,364.0,NaN,5.364,8.0,336.9,23 / 30,124027,2020-03-19 20:11:31:077
13.589489,-4.074931,1.92015,8.0,49.84852,24.040956,364.0,NaN,5.364,8.0,336.9,23 / 30,124527,2020-03-19 20:11:31:577
7.024588,-4.592078,-0.368707,8.0,49.84852,24.040956,364.0,NaN,5.364,8.0,336.9,23 / 30,125029,2020-03-19 20:11:32:079
18.942924,3.280056,3.605668,8.0,49.84852,24.040956,364.0,NaN,5.364,8.0,336.9,23 / 30,125527,2020-03-19 20:11:32:577
5.770026,-4.098873,0.191536,8.0,49.84852,24.040956,364.0,NaN,5.364,8.0,336.9,23 / 30,126027,2020-03-19 20:11:33:077
6.272809,0.11971,-1.742979,8.0,49.84852,24.040956,364.0,NaN,5.364,8.0,336.9,0 / 0,126527,2020-03-19 20:11:33:577
7.177817,-2.566584,2.15957,8.0,49.84852,24.040956,364.0,NaN,5.364,8.0,336.9,0 / 1,127028,2020-03-19 20:11:34:078
10.232818,-1.565808,0.349553,8.0,49.84852,24.040956,364.0,NaN,5.364,8.0,336.9,0 / 1,127527,2020-03-19 20:11:34:577
13.661315,-3.155558,2.116475,8.0,49.84852,24.040956,364.0,NaN,5.364,8.0,336.9,13 / 13,128027,2020-03-19 20:11:35:077
13.809755,-1.781286,2.671929,8.0,49.84852,24.040956,364.0,NaN,5.364,8.0,336.9,13 / 13,128527,2020-03-19 20:11:35:577
13.76666,-3.782838,1.637634,8.0,49.84852,24.040956,364.0,NaN,5.364,8.0,336.9,22 / 26,129028,2020-03-19 20:11:36:078
8.073248,-7.115567,2.149993,8.0,49.84852,24.040956,364.0,NaN,5.364,8.0,336.9,22 / 26,129528,2020-03-19 20:11:36:578
14.700398,-2.60968,4.280833,8.0,49.84928,24.040253,386.0,NaN,4.788,7.5,328.2,22 / 28,130028,2020-03-19 20:11:37:078
5.396531,-3.74932,1.134852,8.0,49.84928,24.040253,386.0,NaN,4.788,7.5,328.2,22 / 28,130527,2020-03-19 20:11:37:577
6.133945,-0.047884,2.466028,8.0,49.84928,24.040253,386.0,NaN,4.788,7.5,328.2,22 / 28,131027,2020-03-19 20:11:38:077
9.380483,-3.65834,1.656788,8.0,49.84928,24.040253,386.0,NaN,4.788,7.5,328.2,22 / 28,131527,2020-03-19 20:11:38:577
16.22311,-4.807557,3.543419,8.0,49.84928,24.040253,386.0,NaN,4.788,7.5,328.2,22 / 28,132028,2020-03-19 20:11:39:078
11.908759,-2.892196,1.063026,8.0,49.84928,24.040253,386.0,NaN,4.788,7.5,328.2,22 / 28,132528,2020-03-19 20:11:39:578
15.519216,-6.952761,3.265691,8.0,49.84928,24.040253,386.0,NaN,4.788,7.5,328.2,22 / 28,133027,2020-03-19 20:11:40:077
15.471332,-3.979163,1.086968,8.0,49.84928,24.040253,386.0,NaN,4.788,7.5,328.2,22 / 28,133527,2020-03-19 20:11:40:577
6.402096,-5.046977,2.647987,8.0,49.84928,24.040253,386.0,NaN,4.788,7.5,328.2,22 / 28,134027,2020-03-19 20:11:41:077
5.324705,-2.384625,1.910573,8.0,49.84928,24.040253,386.0,NaN,4.788,7.5,328.2,22 / 28,134528,2020-03-19 20:11:41:578
7.982269,-2.303222,1.015142,8.0,49.84928,24.040253,386.0,NaN,4.788,7.5,328.2,22 / 28,135028,2020-03-19 20:11:42:078
12.057199,-1.115698,0.512359,8.0,49.84928,24.040253,386.0,NaN,4.788,7.5,328.2,22 / 28,135527,2020-03-19 20:11:42:577
14.671668,-6.612785,2.470816,8.0,49.84928,24.040253,386.0,NaN,4.788,7.5,328.2,22 / 28,136027,2020-03-19 20:11:43:077
9.275137,-7.28795,0.248997,8.0,49.84928,24.040253,386.0,NaN,4.788,7.5,328.2,22 / 28,136527,2020-03-19 20:11:43:577
12.239159,-3.481169,2.456451,8.0,49.84928,24.040253,386.0,NaN,4.788,7.5,328.2,22 / 28,137027,2020-03-19 20:11:44:077
8.542512,-7.445967,1.714248,8.0,49.84928,24.040253,386.0,NaN,4.788,7.5,328.2,22 / 28,137527,2020-03-19 20:11:44:577
18.358738,-0.244209,4.477157,8.0,49.84928,24.040253,386.0,NaN,4.788,7.5,328.2,22 / 28,138027,2020-03-19 20:11:45:077
6.607997,-3.500323,0.847547,8.0,49.84928,24.040253,386.0,NaN,4.788,7.5,328.2,22 / 28,138527,2020-03-19 20:11:45:577
6.296751,-1.039083,1.244985,8.0,49.84928,24.040253,386.0,NaN,4.788,7.5,328.2,22 / 28,139027,2020-03-19 20:11:46:077
8.585608,-3.303998,1.599327,8.0,49.84928,24.040253,386.0,NaN,4.788,7.5,328.2,22 / 28,139527,2020-03-19 20:11:46:577
13.991714,-3.289633,-0.110133,8.0,49.84928,24.040253,386.0,NaN,4.788,7.5,328.2,22 / 28,140027,2020-03-19 20:11:47:077
13.057976,-2.499546,0.665588,8.0,49.84928,24.040253,386.0,NaN,4.788,7.5,328.2,22 / 28,140528,2020-03-19 20:11:47:578
17.24304,-5.300762,2.145205,8.0,49.84928,24.040253,386.0,NaN,4.788,7.5,328.2,22 / 28,141028,2020-03-19 20:11:48:078
12.722788,-3.576937,0.742203,8.0,49.84928,24.040253,386.0,NaN,4.788,7.5,328.2,22 / 28,141528,2020-03-19 20:11:48:578
8.101979,-3.62961,1.053449,8.0,49.84928,24.040253,386.0,NaN,4.788,7.5,328.2,22 / 28,142027,2020-03-19 20:11:49:077
9.959879,-1.417367,3.773262,8.0,49.84928,24.040253,386.0,NaN,4.788,7.5,328.2,22 / 28,142527,2020-03-19 20:11:49:577
7.206548,-2.197877,0.584185,8.0,49.84928,24.040253,386.0,NaN,4.788,7.5,328.2,22 / 28,143027,2020-03-19 20:11:50:077
8.078037,1.177947,-1.987187,8.0,49.84928,24.040253,386.0,NaN,4.788,7.5,328.2,22 / 28,143527,2020-03-19 20:11:50:577
7.848193,-4.955997,2.207454,8.0,49.84928,24.040253,386.0,NaN,4.788,7.5,328.2,22 / 28,144027,2020-03-19 20:11:51:077
12.856863,-6.330269,3.217807,8.0,49.84928,24.040253,386.0,NaN,4.788,7.5,328.2,22 / 28,144527,2020-03-19 20:11:51:577
9.457097,-4.271256,1.675941,8.0,49.84928,24.040253,386.0,NaN,4.788,7.5,328.2,22 / 28,145027,2020-03-19 20:11:52:077
13.752295,-4.505887,2.446874,8.0,49.84928,24.040253,386.0,NaN,4.788,7.5,328.2,22 / 28,145527,2020-03-19 20:11:52:577
14.058752,-3.394978,1.005565,8.0,49.84928,24.040253,386.0,NaN,4.788,7.5,328.2,22 / 28,146027,2020-03-19 20:11:53:077
5.482722,-5.980716,1.867477,8.0,49.84928,24.040253,386.0,NaN,4.788,7.5,328.2,22 / 28,146527,2020-03-19 20:11:53:577
6.83784,-2.437297,2.102109,8.0,49.84928,24.040253,386.0,NaN,4.788,7.5,328.2,22 / 28,147028,2020-03-19 20:11:54:078
6.71813,-1.359906,1.144428,8.0,49.84928,24.040253,386.0,NaN,4.788,7.5,328.2,22 / 28,147527,2020-03-19 20:11:54:577
14.250289,1.302446,-0.962469,8.0,49.84928,24.040253,386.0,NaN,4.788,7.5,328.2,22 / 28,148027,2020-03-19 20:11:55:077
11.27669,-4.908113,1.369483,8.0,49.84928,24.040253,386.0,NaN,4.788,7.5,328.2,22 / 28,148527,2020-03-19 20:11:55:577
12.785037,-0.201113,1.01993,8.0,49.84928,24.040253,386.0,NaN,4.788,7.5,328.2,22 / 28,149027,2020-03-19 20:11:56:077
11.128249,-5.736507,2.494758,8.0,49.84928,24.040253,386.0,NaN,4.788,7.5,328.2,22 / 28,149527,2020-03-19 20:11:56:577
5.975928,-8.231265,-1.532289,8.0,49.84928,24.040253,386.0,NaN,4.788,7.5,328.2,22 / 28,150028,2020-03-19 20:11:57:078
18.80406,0.727837,4.702213,8.0,49.84928,24.040253,386.0,NaN,4.788,7.5,328.2,22 / 28,150528,2020-03-19 20:11:57:578
6.014235,-5.099649,1.886631,8.0,49.84928,24.040253,386.0,NaN,4.788,7.5,328.2,22 / 28,151027,2020-03-19 20:11:58:077
5.439626,-1.819593,1.810017,8.0,49.84928,24.040253,386.0,NaN,4.788,7.5,328.2,22 / 28,151527,2020-03-19 20:11:58:577
6.550536,-3.825934,2.236184,8.0,49.84928,24.040253,386.0,NaN,4.788,7.5,328.2,22 / 28,152027,2020-03-19 20:11:59:077
14.389153,-3.696647,1.70946,8.0,49.84928,24.040253,386.0,NaN,4.788,7.5,328.2,22 / 28,152527,2020-03-19 20:11:59:577
8.015787,-2.724601,1.029507,8.0,49.84928,24.040253,386.0,NaN,4.788,7.5,328.2,22 / 28,153027,2020-03-19 20:12:00:077
14.709975,-4.635174,1.905785,8.0,49.84928,24.040253,386.0,NaN,4.788,7.5,328.2,22 / 28,153527,2020-03-19 20:12:00:577
12.698846,-5.3678,2.092532,8.0,49.84928,24.040253,386.0,NaN,4.788,7.5,328.2,22 / 28,154027,2020-03-19 20:12:01:077
8.183381,-8.499416,0.861913,8.0,49.84928,24.040253,386.0,NaN,4.788,7.5,328.2,22 / 28,154527,2020-03-19 20:12:01:577
17.142485,-1.70946,4.050989,8.0,49.84928,24.040253,386.0,NaN,4.788,7.5,328.2,22 / 28,155027,2020-03-19 20:12:02:077
5.750873,-5.348646,1.637634,8.0,49.84928,24.040253,386.0,NaN,4.788,7.5,328.2,22 / 28,155527,2020-03-19 20:12:02:577
4.955998,-1.149217,0.488417,8.0,49.84928,24.040253,386.0,NaN,4.788,7.5,328.2,22 / 28,156027,2020-03-19 20:12:03:077
12.876017,-1.422156,1.541866,8.0,49.84928,24.040253,386.0,NaN,4.788,7.5,328.2,22 / 28,156527,2020-03-19 20:12:03:577
6.871359,1.154005,-1.340753,8.0,49.84928,24.040253,386.0,NaN,4.788,7.5,328.2,22 / 28,157027,2020-03-19 20:12:04:077
8.571242,-3.169923,2.102109,8.0,49.84928,24.040253,386.0,NaN,4.788,7.5,328.2,22 / 28,157527,2020-03-19 20:12:04:577
17.262194,-6.833051,4.797981,8.0,49.84928,24.040253,386.0,NaN,4.788,7.5,328.2,22 / 28,158027,2020-03-19 20:12:05:077
17.238253,-5.032612,0.885855,8.0,49.84928,24.040253,386.0,NaN,4.788,7.5,328.2,22 / 28,158527,2020-03-19 20:12:05:577
4.582502,-5.080496,1.407791,8.0,49.84928,24.040253,386.0,NaN,4.788,7.5,328.2,22 / 28,159027,2020-03-19 20:12:06:077
11.003751,-1.393425,3.160346,8.0,49.84928,24.040253,386.0,NaN,4.788,7.5,328.2,22 / 28,159527,2020-03-19 20:12:06:577
6.162676,-2.964022,2.796428,8.0,49.84928,24.040253,386.0,NaN,4.788,7.5,328.2,22 / 28,160027,2020-03-19 20:12:07:077
8.494628,2.087744,-2.810793,8.0,49.84928,24.040253,386.0,NaN,4.788,7.5,328.2,22 / 28,160527,2020-03-19 20:12:07:577
5.3678,-2.154781,1.671153,8.0,49.84928,24.040253,386.0,NaN,4.788,7.5,328.2,22 / 28,161028,2020-03-19 20:12:08:078
7.489063,1.517924,-0.411803,8.0,49.84928,24.040253,386.0,NaN,4.788,7.5,328.2,22 / 28,161527,2020-03-19 20:12:08:577
9.198523,-6.26802,1.632846,8.0,49.84928,24.040253,386.0,NaN,4.788,7.5,328.2,22 / 28,162028,2020-03-19 20:12:09:078
11.913548,-5.094861,3.414132,8.0,49.84928,24.040253,386.0,NaN,4.788,7.5,328.2,22 / 28,162528,2020-03-19 20:12:09:578
14.772224,-2.624045,1.541866,8.0,49.84928,24.040253,386.0,NaN,4.788,7.5,328.2,22 / 28,163027,2020-03-19 20:12:10:077
4.793192,-3.782838,0.3304,8.0,49.84928,24.040253,386.0,NaN,4.788,7.5,328.2,22 / 28,163527,2020-03-19 20:12:10:577
4.328717,-1.685518,1.029507,8.0,49.84928,24.040253,386.0,NaN,4.788,7.5,328.2,22 / 28,164027,2020-03-19 20:12:11:077
8.197747,-3.203442,2.164359,8.0,49.84928,24.040253,386.0,NaN,4.788,7.5,328.2,22 / 28,164527,2020-03-19 20:12:11:577
8.092402,1.551443,3.572149,8.0,49.84928,24.040253,386.0,NaN,4.788,7.5,328.2,22 / 28,165027,2020-03-19 20:12:12:077
4.620809,-4.635174,4.697424,8.0,49.84928,24.040253,386.0,NaN,4.788,7.5,328.2,22 / 28,165527,2020-03-19 20:12:12:577
10.299856,-1.695095,0.344765,8.0,49.84928,24.040253,386.0,NaN,4.788,7.5,328.2,22 / 28,166027,2020-03-19 20:12:13:077
15.509639,1.92015,-2.264915,8.0,49.84928,24.040253,386.0,NaN,4.788,7.5,328.2,22 / 28,166527,2020-03-19 20:12:13:577
13.072341,-7.575254,4.118027,8.0,49.84928,24.040253,386.0,NaN,4.788,7.5,328.2,22 / 28,167028,2020-03-19 20:12:14:078
14.231135,-3.720589,6.83784,8.0,49.84928,24.040253,386.0,NaN,4.788,7.5,328.2,22 / 28,167528,2020-03-19 20:12:14:578
7.781156,-6.373365,3.026271,8.0,49.84928,24.040253,386.0,NaN,4.788,7.5,328.2,22 / 28,168027,2020-03-19 20:12:15:077
10.151415,-1.656788,1.244985,8.0,49.84928,24.040253,386.0,NaN,4.788,7.5,328.2,22 / 28,168527,2020-03-19 20:12:15:577
5.161899,-5.324704,0.335188,8.0,49.84928,24.040253,386.0,NaN,4.788,7.5,328.2,22 / 28,169027,2020-03-19 20:12:16:077
5.54976,-1.757344,1.623269,8.0,49.84928,24.040253,386.0,NaN,4.788,7.5,328.2,22 / 28,169527,2020-03-19 20:12:16:577
7.393295,-3.213019,1.043872,8.0,49.84928,24.040253,386.0,NaN,4.788,7.5,328.2,22 / 28,170027,2020-03-19 20:12:17:077
12.119449,-0.521936,1.422156,8.0,49.84928,24.040253,386.0,NaN,4.788,7.5,328.2,22 / 28,170527,2020-03-19 20:12:17:577
9.859323,-5.051765,4.189853,8.0,49.84928,24.040253,386.0,NaN,4.788,7.5,328.2,22 / 28,171027,2020-03-19 20:12:18:077
9.02614,-9.490616,1.867477,8.0,49.84928,24.040253,386.0,NaN,4.788,7.5,328.2,22 / 28,171527,2020-03-19 20:12:18:577
17.080235,-0.751779,3.1795,8.0,49.84928,24.040253,386.0,NaN,4.788,7.5,328.2,22 / 28,172027,2020-03-19 20:12:19:077
5.889736,-3.797204,1.393425,8.0,49.84928,24.040253,386.0,NaN,4.788,7.5,328.2,22 / 28,172527,2020-03-19 20:12:19:577
19.57978,0.162806,5.712566,8.0,49.84928,24.040253,386.0,NaN,4.788,7.5,328.2,22 / 28,173027,2020-03-19 20:12:20:077
7.225701,-6.081272,2.973599,8.0,49.84928,24.040253,386.0,NaN,4.788,7.5,328.2,22 / 28,173527,2020-03-19 20:12:20:577
6.545748,-1.613692,1.149217,8.0,49.84928,24.040253,386.0,NaN,4.788,7.5,328.2,22 / 28,174027,2020-03-19 20:12:21:077
7.967903,-3.639186,1.766921,8.0,49.84928,24.040253,386.0,NaN,4.788,7.5,328.2,22 / 28,174527,2020-03-19 20:12:21:577
16.156073,-6.41646,2.705448,8.0,49.84928,24.040253,386.0,NaN,4.788,7.5,328.2,22 / 28,175027,2020-03-19 20:12:22:077
11.343728,-4.912902,1.503559,8.0,49.84928,24.040253,386.0,NaN,4.788,7.5,328.2,22 / 28,175527,2020-03-19 20:12:22:577
8.092402,-9.26556,3.787627,8.0,49.84928,24.040253,386.0,NaN,4.788,7.5,328.2,22 / 28,176027,2020-03-19 20:12:23:077
15.102624,-4.050989,1.776498,8.0,49.84928,24.040253,386.0,NaN,4.788,7.5,328.2,22 / 28,176527,2020-03-19 20:12:23:577
4.472369,-4.778826,0.445322,8.0,49.84928,24.040253,386.0,NaN,4.788,7.5,328.2,22 / 28,177028,2020-03-19 20:12:24:078
8.178593,-0.397437,0.248997,8.0,49.84928,24.040253,386.0,NaN,4.788,7.5,328.2,22 / 28,177527,2020-03-19 20:12:24:577
6.895301,-2.686294,1.94888,8.0,49.84928,24.040253,386.0,NaN,4.788,7.5,328.2,22 / 28,178028,2020-03-19 20:12:25:078
8.456321,-0.435745,-3.260903,8.0,49.84928,24.040253,386.0,NaN,4.788,7.5,328.2,22 / 28,178527,2020-03-19 20:12:25:577
8.844181,-5.00867,3.342306,8.0,49.84928,24.040253,386.0,NaN,4.788,7.5,328.2,22 / 28,179028,2020-03-19 20:12:26:078
16.117765,-8.51857,0.397437,8.0,49.84928,24.040253,386.0,NaN,4.788,7.5,328.2,22 / 28,179527,2020-03-19 20:12:26:577
8.662222,-6.483498,3.074155,8.0,49.84928,24.040253,386.0,NaN,4.788,7.5,328.2,22 / 28,180027,2020-03-19 20:12:27:077
12.689269,-6.382941,3.524265,8.0,49.84928,24.040253,386.0,NaN,4.788,7.5,328.2,22 / 28,180527,2020-03-19 20:12:27:577
12.301409,-4.692635,-0.526724,8.0,49.84928,24.040253,386.0,NaN,4.788,7.5,328.2,22 / 28,181027,2020-03-19 20:12:28:077
7.220913,-6.804321,3.15077,8.0,49.84928,24.040253,386.0,NaN,4.788,7.5,328.2,22 / 28,181528,2020-03-19 20:12:28:578
5.597644,-0.440533,1.479617,8.0,49.84928,24.040253,386.0,NaN,4.788,7.5,328.2,22 / 28,182027,2020-03-19 20:12:29:077
7.920019,0.110133,2.600103,8.0,49.84928,24.040253,386.0,NaN,4.788,7.5,328.2,22 / 28,182527,2020-03-19 20:12:29:577
13.148955,-4.261679,1.570596,8.0,49.84928,24.040253,386.0,NaN,4.788,7.5,328.2,22 / 28,183027,2020-03-19 20:12:30:077
10.912771,-4.256891,-1.594538,8.0,49.84928,24.040253,386.0,NaN,4.788,7.5,328.2,22 / 28,183527,2020-03-19 20:12:30:577
16.965311,-3.821146,-0.531513,8.0,49.84928,24.040253,386.0,NaN,4.788,7.5,328.2,22 / 28,184027,2020-03-19 20:12:31:077
12.823344,-4.079719,1.924938,8.0,49.84928,24.040253,386.0,NaN,4.788,7.5,328.2,22 / 28,184527,2020-03-19 20:12:31:577
8.99741,-4.711789,2.06859,8.0,49.84928,24.040253,386.0,NaN,4.788,7.5,328.2,22 / 28,185027,2020-03-19 20:12:32:077
13.206416,0.646435,3.203442,8.0,49.84928,24.040253,386.0,NaN,4.788,7.5,328.2,22 / 28,185527,2020-03-19 20:12:32:577
6.33027,-2.264915,2.178724,8.0,49.84928,24.040253,386.0,NaN,4.788,7.5,328.2,22 / 28,186027,2020-03-19 20:12:33:077
6.296751,0.196325,-0.282516,8.0,49.84928,24.040253,386.0,NaN,4.788,7.5,328.2,0 / 0,186527,2020-03-19 20:12:33:577
9.969456,-4.994304,1.972822,8.0,49.84928,24.040253,386.0,NaN,4.788,7.5,328.2,0 / 1,187027,2020-03-19 20:12:34:077
17.798496,-3.184288,2.111686,8.0,49.84928,24.040253,386.0,NaN,4.788,7.5,328.2,0 / 1,187528,2020-03-19 20:12:34:578
10.022128,-7.64708,2.72939,8.0,49.84928,24.040253,386.0,NaN,4.788,7.5,328.2,10 / 10,188027,2020-03-19 20:12:35:077
14.130578,-6.909666,4.175488,8.0,49.84928,24.040253,386.0,NaN,4.788,7.5,328.2,10 / 10,188527,2020-03-19 20:12:35:577
13.192051,-5.24809,2.590526,8.0,49.84928,24.040253,386.0,NaN,4.788,7.5,328.2,22 / 27,189027,2020-03-19 20:12:36:077
5.93762,-6.272808,1.517924,8.0,49.84928,24.040253,386.0,NaN,4.788,7.5,328.2,22 / 27,189527,2020-03-19 20:12:36:577
9.979033,-1.786074,2.063802,8.0,49.8495,24.03919,377.0,NaN,4.86,8.5,290.8,22 / 28,190027,2020-03-19 20:12:37:077
5.612009,-2.930503,1.005565,8.0,49.8495,24.03919,377.0,NaN,4.86,8.5,290.8,22 / 28,190527,2020-03-19 20:12:37:577
11.927913,1.675941,-1.546654,8.0,49.8495,24.03919,377.0,NaN,4.86,8.5,290.8,22 / 28,191027,2020-03-19 20:12:38:077
9.409213,-7.326257,2.442086,8.0,49.8495,24.03919,377.0,NaN,4.86,8.5,290.8,22 / 28,191527,2020-03-19 20:12:38:577
11.99495,-5.975927,3.222596,8.0,49.8495,24.03919,377.0,NaN,4.86,8.5,290.8,22 / 28,192028,2020-03-19 20:12:39:078
11.003751,-6.722918,2.8491,8.0,49.8495,24.03919,377.0,NaN,4.86,8.5,290.8,22 / 28,192528,2020-03-19 20:12:39:578
10.740389,-3.466804,1.570596,8.0,49.8495,24.03919,377.0,NaN,4.86,8.5,290.8,22 / 28,193028,2020-03-19 20:12:40:078
17.879898,-1.752556,1.642422,8.0,49.8495,24.03919,377.0,NaN,4.86,8.5,290.8,22 / 28,193528,2020-03-19 20:12:40:578
4.352659,-6.248866,2.839523,8.0,49.8495,24.03919,377.0,NaN,4.86,8.5,290.8,22 / 28,194027,2020-03-19 20:12:41:077
4.563349,-2.327164,1.56102,8.0,49.8495,24.03919,377.0,NaN,4.86,8.5,290.8,22 / 28,194527,2020-03-19 20:12:41:577
7.302315,-2.269703,0.426168,8.0,49.8495,24.03919,377.0,NaN,4.86,8.5,290.8,22 / 28,195027,2020-03-19 20:12:42:077
14.69561,0.612916,-2.03986,8.0,49.8495,24.03919,377.0,NaN,4.86,8.5,290.8,22 / 28,195527,2020-03-19 20:12:42:577
11.803414,-4.908113,1.661576,8.0,49.8495,24.03919,377.0,NaN,4.86,8.5,290.8,22 / 28,196028,2020-03-19 20:12:43:078
9.548077,-7.067683,2.015918,8.0,49.8495,24.03919,377.0,NaN,4.86,8.5,290.8,22 / 28,196527,2020-03-19 20:12:43:577
11.405977,-3.107674,1.910573,8.0,49.8495,24.03919,377.0,NaN,4.86,8.5,290.8,22 / 28,197027,2020-03-19 20:12:44:077
8.2169,-7.867347,0.766145,8.0,49.8495,24.03919,377.0,NaN,4.86,8.5,290.8,22 / 28,197528,2020-03-19 20:12:44:578
7.144298,-3.294421,-0.191536,8.0,49.8495,24.03919,377.0,NaN,4.86,8.5,290.8,22 / 28,198028,2020-03-19 20:12:45:078
4.831499,-1.872266,-1.661576,8.0,49.8495,24.03919,377.0,NaN,4.86,8.5,290.8,22 / 28,198528,2020-03-19 20:12:45:578
6.564901,-1.991976,-1.723825,8.0,49.8495,24.03919,377.0,NaN,4.86,8.5,290.8,22 / 28,199027,2020-03-19 20:12:46:077
12.684481,-5.181052,2.106898,8.0,49.8495,24.03919,377.0,NaN,4.86,8.5,290.8,22 / 28,199527,2020-03-19 20:12:46:577
8.939949,-5.190629,2.499547,8.0,49.8495,24.03919,377.0,NaN,4.86,8.5,290.8,22 / 28,200027,2020-03-19 20:12:47:077
17.132908,-0.110133,2.327164,8.0,49.8495,24.03919,377.0,NaN,4.86,8.5,290.8,22 / 28,200527,2020-03-19 20:12:47:577
12.483368,-6.53617,1.642422,8.0,49.8495,24.03919,377.0,NaN,4.86,8.5,290.8,22 / 28,201027,2020-03-19 20:12:48:077
14.18325,-3.150769,1.972822,8.0,49.8495,24.03919,377.0,NaN,4.86,8.5,290.8,22 / 28,201527,2020-03-19 20:12:48:577
6.009446,-5.252878,0.397437,8.0,49.8495,24.03919,377.0,NaN,4.86,8.5,290.8,22 / 28,202027,2020-03-19 20:12:49:077
3.897761,-3.308787,1.905785,8.0,49.8495,24.03919,377.0,NaN,4.86,8.5,290.8,22 / 28,202528,2020-03-19 20:12:49:578
6.335058,-2.06859,1.632846,8.0,49.8495,24.03919,377.0,NaN,4.86,8.5,290.8,22 / 28,203027,2020-03-19 20:12:50:077
12.454638,-1.058237,1.168371,8.0,49.8495,24.03919,377.0,NaN,4.86,8.5,290.8,22 / 28,203528,2020-03-19 20:12:50:578
13.220781,-7.589619,2.844312,8.0,49.8495,24.03919,377.0,NaN,4.86,8.5,290.8,22 / 28,204027,2020-03-19 20:12:51:077
5.257667,-6.62715,0.68953,8.0,49.8495,24.03919,377.0,NaN,4.86,8.5,290.8,22 / 28,204527,2020-03-19 20:12:51:577
15.538369,-2.365471,3.926491,8.0,49.8495,24.03919,377.0,NaN,4.86,8.5,290.8,22 / 28,205027,2020-03-19 20:12:52:077
11.382035,-4.256891,0.794875,8.0,49.8495,24.03919,377.0,NaN,4.86,8.5,290.8,22 / 28,205527,2020-03-19 20:12:52:577
15.045163,-3.155558,2.614468,8.0,49.8495,24.03919,377.0,NaN,4.86,8.5,290.8,22 / 28,206027,2020-03-19 20:12:53:077
7.149087,-6.287173,3.318364,8.0,49.8495,24.03919,377.0,NaN,4.86,8.5,290.8,22 / 28,206528,2020-03-19 20:12:53:578
8.298303,-1.216254,0.833182,8.0,49.8495,24.03919,377.0,NaN,4.86,8.5,290.8,22 / 28,207027,2020-03-19 20:12:54:077
5.837064,-2.949656,1.091756,8.0,49.8495,24.03919,377.0,NaN,4.86,8.5,290.8,22 / 28,207527,2020-03-19 20:12:54:577
10.682928,0.641646,-0.526724,8.0,49.8495,24.03919,377.0,NaN,4.86,8.5,290.8,22 / 28,208027,2020-03-19 20:12:55:077
12.176909,-3.533841,1.278504,8.0,49.8495,24.03919,377.0,NaN,4.86,8.5,290.8,22 / 28,208528,2020-03-19 20:12:55:578
10.127473,-3.572149,2.513912,8.0,49.8495,24.03919,377.0,NaN,4.86,8.5,290.8,22 / 28,209028,2020-03-19 20:12:56:078
16.745047,-2.983175,2.111686,8.0,49.8495,24.03919,377.0,NaN,4.86,8.5,290.8,22 / 28,209527,2020-03-19 20:12:56:577
9.193734,-6.612785,2.217031,8.0,49.8495,24.03919,377.0,NaN,4.86,8.5,290.8,22 / 28,210027,2020-03-19 20:12:57:077
15.796943,-3.318364,-0.421379,8.0,49.8495,24.03919,377.0,NaN,4.86,8.5,290.8,22 / 28,210527,2020-03-19 20:12:57:577
6.047754,-5.870582,2.217031,8.0,49.8495,24.03919,377.0,NaN,4.86,8.5,290.8,22 / 28,211027,2020-03-19 20:12:58:077
8.63828,-0.986411,3.002329,8.0,49.8495,24.03919,377.0,NaN,4.86,8.5,290.8,22 / 28,211527,2020-03-19 20:12:58:577
7.07726,-3.610456,2.375048,8.0,49.8495,24.03919,377.0,NaN,4.86,8.5,290.8,22 / 28,212028,2020-03-19 20:12:59:078
15.227123,-0.670376,0.158017,8.0,49.8495,24.03919,377.0,NaN,4.86,8.5,290.8,22 / 28,212528,2020-03-19 20:12:59:578
12.258312,-2.930503,0.603339,8.0,49.8495,24.03919,377.0,NaN,4.86,8.5,290.8,22 / 28,213027,2020-03-19 20:13:00:077
6.856994,-7.354987,0.435745,8.0,49.8495,24.03919,377.0,NaN,4.86,8.5,290.8,22 / 28,213527,2020-03-19 20:13:00:577
13.517663,-2.298433,0.521936,8.0,49.8495,24.03919,377.0,NaN,4.86,8.5,290.8,22 / 28,214028,2020-03-19 20:13:01:078
7.584831,-7.493851,0.272939,8.0,49.8495,24.03919,377.0,NaN,4.86,8.5,290.8,22 / 28,214527,2020-03-19 20:13:01:577
15.44739,-2.106897,3.86903,8.0,49.8495,24.03919,377.0,NaN,4.86,8.5,290.8,22 / 28,215027,2020-03-19 20:13:02:077
4.683059,-4.309563,0.948104,8.0,49.8495,24.03919,377.0,NaN,4.86,8.5,290.8,22 / 28,215527,2020-03-19 20:13:02:577
8.06846,0.043096,0.201113,8.0,49.8495,24.03919,377.0,NaN,4.86,8.5,290.8,22 / 28,216027,2020-03-19 20:13:03:077
8.073248,-3.1795,1.94888,8.0,49.8495,24.03919,377.0,NaN,4.86,8.5,290.8,22 / 28,216528,2020-03-19 20:13:03:578
15.040375,-5.334281,0.565032,8.0,49.8495,24.03919,377.0,NaN,4.86,8.5,290.8,22 / 28,217028,2020-03-19 20:13:04:078
11.33894,-4.697424,1.872266,8.0,49.8495,24.03919,377.0,NaN,4.86,8.5,290.8,22 / 28,217527,2020-03-19 20:13:04:577
14.188039,-4.271256,1.953669,8.0,49.8495,24.03919,377.0,NaN,4.86,8.5,290.8,22 / 28,218027,2020-03-19 20:13:05:077
13.838486,-5.66947,2.030283,8.0,49.8495,24.03919,377.0,NaN,4.86,8.5,290.8,22 / 28,218527,2020-03-19 20:13:05:577
5.238514,-6.258443,1.565808,8.0,49.8495,24.03919,377.0,NaN,4.86,8.5,290.8,22 / 28,219027,2020-03-19 20:13:06:077
8.39886,-2.044648,0.612916,8.0,49.8495,24.03919,377.0,NaN,4.86,8.5,290.8,22 / 28,219527,2020-03-19 20:13:06:577
5.770026,-2.322375,0.608127,8.0,49.8495,24.03919,377.0,NaN,4.86,8.5,290.8,22 / 28,220027,2020-03-19 20:13:07:077
9.270349,0.153229,-0.196325,8.0,49.8495,24.03919,377.0,NaN,4.86,8.5,290.8,22 / 28,220527,2020-03-19 20:13:07:577
10.414778,-3.892972,1.067814,8.0,49.8495,24.03919,377.0,NaN,4.86,8.5,290.8,22 / 28,221027,2020-03-19 20:13:08:077
9.662998,-3.667917,3.500323,8.0,49.8495,24.03919,377.0,NaN,4.86,8.5,290.8,22 / 28,221527,2020-03-19 20:13:08:577
11.774684,-3.739743,0.737414,8.0,49.8495,24.03919,377.0,NaN,4.86,8.5,290.8,22 / 28,222027,2020-03-19 20:13:09:077
10.548853,-6.890512,1.628057,8.0,49.8495,24.03919,377.0,NaN,4.86,8.5,290.8,22 / 28,222527,2020-03-19 20:13:09:577
15.116989,-4.520252,2.8491,8.0,49.8495,24.03919,377.0,NaN,4.86,8.5,290.8,22 / 28,223028,2020-03-19 20:13:10:078
5.54976,-3.414132,0.986411,8.0,49.8495,24.03919,377.0,NaN,4.86,8.5,290.8,22 / 28,223527,2020-03-19 20:13:10:577
5.109226,-0.651223,0.062249,8.0,49.8495,24.03919,377.0,NaN,4.86,8.5,290.8,22 / 28,224027,2020-03-19 20:13:11:077
6.038177,-3.055001,1.355118,8.0,49.8495,24.03919,377.0,NaN,4.86,8.5,290.8,22 / 28,224528,2020-03-19 20:13:11:578
15.581465,-5.540182,1.982399,8.0,49.8495,24.03919,377.0,NaN,4.86,8.5,290.8,22 / 28,225027,2020-03-19 20:13:12:077
13.383588,-2.786851,4.113238,8.0,49.8495,24.03919,377.0,NaN,4.86,8.5,290.8,22 / 28,225527,2020-03-19 20:13:12:577
10.496181,-2.341529,2.274492,8.0,49.8495,24.03919,377.0,NaN,4.86,8.5,290.8,22 / 28,226027,2020-03-19 20:13:13:077
14.690822,-4.357447,0.703895,8.0,49.8495,24.03919,377.0,NaN,4.86,8.5,290.8,22 / 28,226527,2020-03-19 20:13:13:577
6.162676,-6.330269,1.398214,8.0,49.8495,24.03919,377.0,NaN,4.86,8.5,290.8,22 / 28,227027,2020-03-19 20:13:14:077
7.876924,-2.169147,1.417368,8.0,49.8495,24.03919,377.0,NaN,4.86,8.5,290.8,22 / 28,227527,2020-03-19 20:13:14:577
5.928044,-3.126827,1.527501,8.0,49.8495,24.03919,377.0,NaN,4.86,8.5,290.8,22 / 28,228027,2020-03-19 20:13:15:077
12.445061,1.225831,-0.320823,8.0,49.8495,24.03919,377.0,NaN,4.86,8.5,290.8,22 / 28,228527,2020-03-19 20:13:15:577
10.419566,-6.938396,2.418144,8.0,49.8495,24.03919,377.0,NaN,4.86,8.5,290.8,22 / 28,229027,2020-03-19 20:13:16:077
11.63582,-5.329493,2.154782,8.0,49.8495,24.03919,377.0,NaN,4.86,8.5,290.8,22 / 28,229527,2020-03-19 20:13:16:577
11.281479,-6.100425,0.967258,8.0,49.8495,24.03919,377.0,NaN,4.86,8.5,290.8,22 / 28,230027,2020-03-19 20:13:17:077
9.380483,-6.234501,2.236184,8.0,49.8495,24.03919,377.0,NaN,4.86,8.5,290.8,22 / 28,230527,2020-03-19 20:13:17:577
15.260642,-1.005565,1.853112,8.0,49.8495,24.03919,377.0,NaN,4.86,8.5,290.8,22 / 28,231027,2020-03-19 20:13:18:077
6.062119,-3.141193,0.718261,8.0,49.8495,24.03919,377.0,NaN,4.86,8.5,290.8,22 / 28,231527,2020-03-19 20:13:18:577
6.306328,0.684742,1.067814,8.0,49.8495,24.03919,377.0,NaN,4.86,8.5,290.8,22 / 28,232027,2020-03-19 20:13:19:077
8.714894,-3.150769,1.173159,8.0,49.8495,24.03919,377.0,NaN,4.86,8.5,290.8,22 / 28,232527,2020-03-19 20:13:19:577
15.720328,-4.76925,2.576161,8.0,49.8495,24.03919,377.0,NaN,4.86,8.5,290.8,22 / 28,233027,2020-03-19 20:13:20:077
13.148955,-3.031059,0.646435,8.0,49.8495,24.03919,377.0,NaN,4.86,8.5,290.8,22 / 28,233528,2020-03-19 20:13:20:578
13.584701,-5.281609,2.504335,8.0,49.8495,24.03919,377.0,NaN,4.86,8.5,290.8,22 / 28,234027,2020-03-19 20:13:21:077
13.522451,-1.335964,0.296881,8.0,49.8495,24.03919,377.0,NaN,4.86,8.5,290.8,22 / 28,234527,2020-03-19 20:13:21:577
9.375694,-6.449979,0.588974,8.0,49.8495,24.03919,377.0,NaN,4.86,8.5,290.8,22 / 28,235027,2020-03-19 20:13:22:077
15.394717,-1.479617,3.366248,8.0,49.8495,24.03919,377.0,NaN,4.86,8.5,290.8,22 / 28,235527,2020-03-19 20:13:22:577
4.414908,-1.80044,-1.73819,8.0,49.8495,24.03919,377.0,NaN,4.86,8.5,290.8,22 / 28,236027,2020-03-19 20:13:23:077
5.406108,-1.714248,2.432509,8.0,49.8495,24.03919,377.0,NaN,4.86,8.5,290.8,22 / 28,236527,2020-03-19 20:13:23:577
8.293515,-5.659893,2.892196,8.0,49.8495,24.03919,377.0,NaN,4.86,8.5,290.8,22 / 28,237027,2020-03-19 20:13:24:077
13.086706,-4.635174,1.163582,8.0,49.8495,24.03919,377.0,NaN,4.86,8.5,290.8,22 / 28,237528,2020-03-19 20:13:24:578
9.998186,-5.947197,1.446098,8.0,49.8495,24.03919,377.0,NaN,4.86,8.5,290.8,22 / 28,238027,2020-03-19 20:13:25:077
10.764331,-3.572149,1.077391,8.0,49.8495,24.03919,377.0,NaN,4.86,8.5,290.8,22 / 28,238527,2020-03-19 20:13:25:577
14.211981,-1.201889,-0.23942,8.0,49.8495,24.03919,377.0,NaN,4.86,8.5,290.8,22 / 28,239027,2020-03-19 20:13:26:077
5.477934,-0.885855,0.981623,8.0,49.8495,24.03919,377.0,NaN,4.86,8.5,290.8,22 / 28,239527,2020-03-19 20:13:26:577
13.905523,-1.690306,4.97994,8.0,49.8495,24.03919,377.0,NaN,4.86,8.5,290.8,22 / 28,240027,2020-03-19 20:13:27:077
13.728353,-3.806781,-2.059013,8.0,49.8495,24.03919,377.0,NaN,4.86,8.5,290.8,22 / 28,240527,2020-03-19 20:13:27:577
6.78038,-5.597643,1.460463,8.0,49.8495,24.03919,377.0,NaN,4.86,8.5,290.8,22 / 28,241027,2020-03-19 20:13:28:077
11.180922,-0.148441,4.386178,8.0,49.8495,24.03919,377.0,NaN,4.86,8.5,290.8,22 / 28,241528,2020-03-19 20:13:28:578
6.181829,-5.956774,0.339977,8.0,49.8495,24.03919,377.0,NaN,4.86,8.5,290.8,22 / 28,242027,2020-03-19 20:13:29:077
9.864111,-0.612916,2.360683,8.0,49.8495,24.03919,377.0,NaN,4.86,8.5,290.8,22 / 28,242527,2020-03-19 20:13:29:577
7.455544,-1.8579,-0.114922,8.0,49.8495,24.03919,377.0,NaN,4.86,8.5,290.8,22 / 28,243028,2020-03-19 20:13:30:078
12.129025,0.057461,0.158017,8.0,49.8495,24.03919,377.0,NaN,4.86,8.5,290.8,22 / 28,243527,2020-03-19 20:13:30:577
11.942278,-4.91769,0.938527,8.0,49.8495,24.03919,377.0,NaN,4.86,8.5,290.8,22 / 28,244027,2020-03-19 20:13:31:077
8.944737,-6.531382,1.484405,8.0,49.8495,24.03919,377.0,NaN,4.86,8.5,290.8,22 / 28,244527,2020-03-19 20:13:31:577
17.903843,-1.134852,3.136404,8.0,49.8495,24.03919,377.0,NaN,4.86,8.5,290.8,22 / 28,245027,2020-03-19 20:13:32:077
8.312668,-5.45878,0.603339,8.0,49.8495,24.03919,377.0,NaN,4.86,8.5,290.8,22 / 28,245527,2020-03-19 20:13:32:577
16.955736,-1.838747,1.862689,8.0,49.8495,24.03919,377.0,NaN,4.86,8.5,290.8,22 / 28,246027,2020-03-19 20:13:33:077
7.101202,-4.865018,1.086968,8.0,49.8495,24.03919,377.0,NaN,4.86,8.5,290.8,22 / 28,246527,2020-03-19 20:13:33:577
5.305551,-2.331952,1.201889,8.0,49.8495,24.03919,377.0,NaN,4.86,8.5,290.8,22 / 28,247027,2020-03-19 20:13:34:077
6.761226,-2.30801,1.240197,8.0,49.8495,24.03919,377.0,NaN,4.86,8.5,290.8,22 / 28,247527,2020-03-19 20:13:34:577
13.230358,-1.848324,-0.23942,8.0,49.8495,24.03919,377.0,NaN,4.86,8.5,290.8,22 / 28,248028,2020-03-19 20:13:35:078
11.702858,-2.552219,1.896208,8.0,49.8495,24.03919,377.0,NaN,4.86,8.5,290.8,22 / 28,248527,2020-03-19 20:13:35:577
6.167464,-6.914454,-0.584185,8.0,49.8495,24.03919,377.0,NaN,4.86,8.5,290.8,22 / 28,249028,2020-03-19 20:13:36:078
9.481039,-2.365471,4.012682,8.0,49.8495,24.03919,377.0,NaN,4.86,8.5,290.8,22 / 28,249527,2020-03-19 20:13:36:577
3.438074,-5.793968,2.054225,8.0,49.8495,24.03919,377.0,NaN,4.86,8.5,290.8,22 / 28,250028,2020-03-19 20:13:37:078
7.671023,-2.432509,2.044648,8.0,49.8495,24.03919,377.0,NaN,4.86,8.5,290.8,22 / 28,250528,2020-03-19 20:13:37:578
7.556101,-3.093309,1.254562,8.0,49.8495,24.03919,377.0,NaN,4.86,8.5,290.8,22 / 28,251027,2020-03-19 20:13:38:077
13.048399,1.422156,-0.651223,8.0,49.8495,24.03919,377.0,NaN,4.86,8.5,290.8,22 / 28,251527,2020-03-19 20:13:38:577
11.951855,-4.151545,0.952892,8.0,49.8495,24.03919,377.0,NaN,4.86,8.5,290.8,22 / 28,252027,2020-03-19 20:13:39:077
8.872911,-8.418014,1.359907,8.0,49.8495,24.03919,377.0,NaN,4.86,8.5,290.8,22 / 28,252527,2020-03-19 20:13:39:577
15.935806,-1.388637,4.611233,8.0,49.8495,24.03919,377.0,NaN,4.86,8.5,290.8,22 / 28,253027,2020-03-19 20:13:40:077
5.837064,-5.602432,0.9912,8.0,49.8495,24.03919,377.0,NaN,4.86,8.5,290.8,22 / 28,253527,2020-03-19 20:13:40:577
7.254431,-0.962469,1.288081,8.0,49.8495,24.03919,377.0,NaN,4.86,8.5,290.8,22 / 28,254028,2020-03-19 20:13:41:078
4.778827,-4.46758,0.713472,8.0,49.8495,24.03919,377.0,NaN,4.86,8.5,290.8,0 / 0,254527,2020-03-19 20:13:41:577
5.736508,-1.063026,-0.45011,8.0,49.8495,24.03919,377.0,NaN,4.86,8.5,290.8,0 / 2,255028,2020-03-19 20:13:42:078
7.972692,-4.501099,2.001553,8.0,49.8495,24.03919,377.0,NaN,4.86,8.5,290.8,0 / 2,255527,2020-03-19 20:13:42:577
16.304514,-5.410896,1.661576,8.0,49.8495,24.03919,377.0,NaN,4.86,8.5,290.8,12 / 12,256027,2020-03-19 20:13:43:077
11.492168,-4.855441,3.131616,8.0,49.8495,24.03919,377.0,NaN,4.86,8.5,290.8,12 / 12,256527,2020-03-19 20:13:43:577
4.252103,-5.377377,0.943315,8.0,49.8495,24.03919,377.0,NaN,4.86,8.5,290.8,0 / 25,257027,2020-03-19 20:13:44:077
3.950433,-1.910573,1.355118,8.0,49.84922,24.037933,384.0,NaN,1.44,9.5,0.0,22 / 26,257527,2020-03-19 20:13:44:577
6.526594,-2.896984,1.158794,8.0,49.84922,24.037933,384.0,NaN,1.44,9.5,0.0,22 / 26,258028,2020-03-19 20:13:45:078
13.713987,-1.292869,-1.158794,8.0,49.84922,24.037933,384.0,NaN,1.44,9.5,0.0,22 / 26,258527,2020-03-19 20:13:45:577
6.138734,-4.726154,0.493206,8.0,49.84922,24.037933,384.0,NaN,1.44,9.5,0.0,22 / 26,259027,2020-03-19 20:13:46:077
6.694188,-4.261679,0.766145,8.0,49.84922,24.037933,384.0,NaN,1.44,9.5,0.0,22 / 26,259527,2020-03-19 20:13:46:577
10.888829,1.537078,2.293645,8.0,49.84922,24.037933,384.0,NaN,1.44,9.5,0.0,22 / 26,260028,2020-03-19 20:13:47:078
6.871359,-2.178723,-0.023942,8.0,49.84922,24.037933,384.0,NaN,1.44,9.5,0.0,22 / 26,260527,2020-03-19 20:13:47:577
17.712305,2.58095,-1.905785,8.0,49.84922,24.037933,384.0,NaN,1.44,9.5,0.0,22 / 26,261027,2020-03-19 20:13:48:077
12.047623,-3.98874,0.933739,8.0,49.84922,24.037933,384.0,NaN,1.44,9.5,0.0,22 / 26,261527,2020-03-19 20:13:48:577
8.815451,-6.392518,1.532289,8.0,49.84922,24.037933,384.0,NaN,1.44,9.5,0.0,22 / 26,262028,2020-03-19 20:13:49:078
14.753071,-1.16837,2.647987,8.0,49.84922,24.037933,384.0,NaN,1.44,9.5,0.0,22 / 26,262528,2020-03-19 20:13:49:578
4.687847,-5.420472,0.244209,8.0,49.84922,24.037933,384.0,NaN,1.44,9.5,0.0,22 / 26,263027,2020-03-19 20:13:50:077
11.271901,-0.957681,2.695871,8.0,49.84922,24.037933,384.0,NaN,1.44,9.5,0.0,22 / 26,263527,2020-03-19 20:13:50:577
8.221689,-3.007117,1.297657,8.0,49.84922,24.037933,384.0,NaN,1.44,9.5,0.0,22 / 26,264027,2020-03-19 20:13:51:077
10.429143,-0.100556,0.641646,8.0,49.84922,24.037933,384.0,NaN,1.44,9.5,0.0,22 / 26,264527,2020-03-19 20:13:51:577
11.224017,-7.015011,3.217807,8.0,49.84922,24.037933,384.0,NaN,1.44,9.5,0.0,22 / 26,265027,2020-03-19 20:13:52:077
9.442732,-8.710106,1.656788,8.0,49.84922,24.037933,384.0,NaN,1.44,9.5,0.0,22 / 26,265527,2020-03-19 20:13:52:577
21.5957,1.565808,3.983952,8.0,49.84922,24.037933,384.0,NaN,1.44,9.5,0.0,22 / 26,266027,2020-03-19 20:13:53:077
8.944737,-3.514688,2.25055,8.0,49.84922,24.037933,384.0,NaN,1.44,9.5,0.0,22 / 26,266528,2020-03-19 20:13:53:578
8.628703,-1.541866,3.39019,8.0,49.84922,24.037933,384.0,NaN,1.44,9.5,0.0,22 / 26,267027,2020-03-19 20:13:54:077
7.043741,-2.226607,1.115698,8.0,49.84922,24.037933,384.0,NaN,1.44,9.5,0.0,22 / 26,267527,2020-03-19 20:13:54:577
12.899959,1.091756,0.675165,8.0,49.84922,24.037933,384.0,NaN,1.44,9.5,0.0,22 / 26,268027,2020-03-19 20:13:55:077
12.320562,-4.304775,0.354342,8.0,49.84922,24.037933,384.0,NaN,1.44,9.5,0.0,22 / 26,268527,2020-03-19 20:13:55:577
8.006211,-7.671022,1.556231,8.0,49.84922,24.037933,384.0,NaN,1.44,9.5,0.0,22 / 26,269027,2020-03-19 20:13:56:077
18.344374,-3.438074,4.821923,8.0,49.84922,24.037933,384.0,NaN,1.44,9.5,0.0,22 / 26,269527,2020-03-19 20:13:56:577
5.837064,-3.734954,1.335965,8.0,49.84922,24.037933,384.0,NaN,1.44,9.5,0.0,22 / 26,270027,2020-03-19 20:13:57:077
5.57849,0.397437,0.244209,8.0,49.84922,24.037933,384.0,NaN,1.44,9.5,0.0,22 / 26,270528,2020-03-19 20:13:57:578
5.659893,-4.850652,2.001553,8.0,49.84922,24.037933,384.0,NaN,1.44,9.5,0.0,22 / 26,271027,2020-03-19 20:13:58:077
8.829816,0.440533,-0.469264,8.0,49.84922,24.037933,384.0,NaN,1.44,9.5,0.0,22 / 26,271527,2020-03-19 20:13:58:577
9.476251,-7.311892,2.834735,8.0,49.84922,24.037933,384.0,NaN,1.44,9.5,0.0,22 / 26,272027,2020-03-19 20:13:59:077
11.870452,-8.686164,3.107674,8.0,49.84922,24.037933,384.0,NaN,1.44,9.5,0.0,22 / 26,272528,2020-03-19 20:13:59:578
17.27656,-3.950433,0.3304,8.0,49.84922,24.037933,384.0,NaN,1.44,9.5,0.0,22 / 26,273027,2020-03-19 20:14:00:077
3.98874,-5.832275,1.383849,8.0,49.84922,24.037933,384.0,NaN,1.44,9.5,0.0,22 / 26,273527,2020-03-19 20:14:00:577
6.392519,-2.442086,1.532289,8.0,49.84922,24.037933,384.0,NaN,1.44,9.5,0.0,22 / 26,274027,2020-03-19 20:14:01:077
5.832276,-3.859453,1.37906,8.0,49.84922,24.037933,384.0,NaN,1.44,9.5,0.0,22 / 26,274527,2020-03-19 20:14:01:577
4.491523,-2.600103,0.483629,8.0,49.84922,24.037933,384.0,NaN,1.44,9.5,0.0,22 / 26,275027,2020-03-19 20:14:02:077
6.914455,-3.165135,0.871489,8.0,49.84922,24.037933,384.0,NaN,1.44,9.5,0.0,22 / 26,275527,2020-03-19 20:14:02:577
15.164873,-5.779603,-0.861913,8.0,49.84922,24.037933,384.0,NaN,1.44,9.5,0.0,22 / 26,276027,2020-03-19 20:14:03:077
14.288596,-6.191406,1.977611,8.0,49.84922,24.037933,384.0,NaN,1.44,9.5,0.0,22 / 26,276527,2020-03-19 20:14:03:577
7.268797,-6.17704,3.940856,8.0,49.84922,24.037933,384.0,NaN,1.44,9.5,0.0,22 / 26,277027,2020-03-19 20:14:04:077
14.312538,-1.11091,-2.1883,8.0,49.84922,24.037933,384.0,NaN,1.44,9.5,0.0,22 / 26,277527,2020-03-19 20:14:04:577
5.674258,-3.251326,-0.033519,8.0,49.84922,24.037933,384.0,NaN,1.44,9.5,0.0,22 / 26,278027,2020-03-19 20:14:05:077
5.693412,-1.671153,-2.135628,8.0,49.84922,24.037933,384.0,NaN,1.44,9.5,0.0,22 / 26,278527,2020-03-19 20:14:05:577
7.556101,-6.29675,2.351106,8.0,49.84922,24.037933,384.0,NaN,1.44,9.5,0.0,22 / 26,279028,2020-03-19 20:14:06:078
7.924808,1.163582,-1.106121,8.0,49.84922,24.037933,384.0,NaN,1.44,9.5,0.0,22 / 26,279527,2020-03-19 20:14:06:577
11.554418,-4.625597,5.702989,8.0,49.84922,24.037933,384.0,NaN,1.44,9.5,0.0,22 / 26,280027,2020-03-19 20:14:07:077
13.508086,-5.238513,4.903325,8.0,49.84922,24.037933,384.0,NaN,1.44,9.5,0.0,22 / 26,280527,2020-03-19 20:14:07:577
15.188815,-4.668693,0.550666,8.0,49.84922,24.037933,384.0,NaN,1.44,9.5,0.0,22 / 26,281027,2020-03-19 20:14:08:077
5.152323,-6.081272,2.628834,8.0,49.84922,24.037933,384.0,NaN,1.44,9.5,0.0,22 / 26,281527,2020-03-19 20:14:08:577
5.784392,-3.289633,0.177171,8.0,49.84922,24.037933,384.0,NaN,1.44,9.5,0.0,22 / 26,282027,2020-03-19 20:14:09:077
6.469133,-2.5187,1.335965,8.0,49.84922,24.037933,384.0,NaN,1.44,9.5,0.0,22 / 26,282528,2020-03-19 20:14:09:578
12.933477,0.191536,-2.360683,8.0,49.84922,24.037933,384.0,NaN,1.44,9.5,0.0,22 / 26,283028,2020-03-19 20:14:10:078
6.737284,-2.705448,1.747767,8.0,49.84922,24.037933,384.0,NaN,1.44,9.5,0.0,22 / 26,283528,2020-03-19 20:14:10:578
12.248735,-2.30801,-0.531513,8.0,49.84922,24.037933,384.0,NaN,1.44,9.5,0.0,22 / 26,284027,2020-03-19 20:14:11:077
12.660539,-6.172252,1.249773,8.0,49.84922,24.037933,384.0,NaN,1.44,9.5,0.0,22 / 26,284527,2020-03-19 20:14:11:577
7.484275,-8.317456,2.437297,8.0,49.84922,24.037933,384.0,NaN,1.44,9.5,0.0,22 / 26,285029,2020-03-19 20:14:12:079
16.055517,-2.274491,3.280056,8.0,49.84922,24.037933,384.0,NaN,1.44,9.5,0.0,22 / 26,285527,2020-03-19 20:14:12:577
5.185841,-3.667917,0.684742,8.0,49.84922,24.037933,384.0,NaN,1.44,9.5,0.0,22 / 26,286027,2020-03-19 20:14:13:077
4.43885,-0.847547,0.114922,8.0,49.84922,24.037933,384.0,NaN,1.44,9.5,0.0,22 / 26,286527,2020-03-19 20:14:13:577
8.394072,-3.950433,1.527501,8.0,49.84922,24.037933,384.0,NaN,1.44,9.5,0.0,22 / 26,287028,2020-03-19 20:14:14:078
6.842629,-0.062249,-1.70946,8.0,49.84922,24.037933,384.0,NaN,1.44,9.5,0.0,22 / 26,287527,2020-03-19 20:14:14:577
8.413225,-5.104438,2.916138,8.0,49.84922,24.037933,384.0,NaN,1.44,9.5,0.0,22 / 26,288027,2020-03-19 20:14:15:077
17.137695,-5.161899,1.714248,8.0,49.84922,24.037933,384.0,NaN,1.44,9.5,0.0,22 / 26,288527,2020-03-19 20:14:15:577
13.579912,-5.12838,-2.858677,8.0,49.84922,24.037933,384.0,NaN,1.44,9.5,0.0,22 / 26,289027,2020-03-19 20:14:16:077
6.502652,-6.919243,3.217807,8.0,49.84922,24.037933,384.0,NaN,1.44,9.5,0.0,22 / 26,289527,2020-03-19 20:14:16:577
8.317456,-3.308787,1.747767,8.0,49.84922,24.037933,384.0,NaN,1.44,9.5,0.0,22 / 26,290027,2020-03-19 20:14:17:077
7.11078,-2.700659,0.42138,8.0,49.84922,24.037933,384.0,NaN,1.44,9.5,0.0,22 / 26,290527,2020-03-19 20:14:17:577
8.073248,0.263362,-2.786851,8.0,49.84922,24.037933,384.0,NaN,1.44,9.5,0.0,22 / 26,291027,2020-03-19 20:14:18:077
6.871359,-3.05979,0.248997,8.0,49.84922,24.037933,384.0,NaN,1.44,9.5,0.0,22 / 26,291527,2020-03-19 20:14:18:577
11.789049,1.244985,-0.009577,8.0,49.84922,24.037933,384.0,NaN,1.44,9.5,0.0,22 / 26,292027,2020-03-19 20:14:19:077
9.251195,-5.57849,1.656788,8.0,49.84922,24.037933,384.0,NaN,1.44,9.5,0.0,22 / 26,292527,2020-03-19 20:14:19:577
13.043611,-5.568913,2.724602,8.0,49.84922,24.037933,384.0,NaN,1.44,9.5,0.0,22 / 26,293027,2020-03-19 20:14:20:077
14.829685,-5.822698,1.881843,8.0,49.84922,24.037933,384.0,NaN,1.44,9.5,0.0,22 / 26,293527,2020-03-19 20:14:20:577
4.817134,-6.540959,1.771709,8.0,49.84922,24.037933,384.0,NaN,1.44,9.5,0.0,22 / 26,294027,2020-03-19 20:14:21:077
9.811439,-2.001553,1.063026,8.0,49.84922,24.037933,384.0,NaN,1.44,9.5,0.0,22 / 26,294527,2020-03-19 20:14:21:577
5.123592,1.01993,-0.742202,8.0,49.84922,24.037933,384.0,NaN,1.44,9.5,0.0,22 / 26,295027,2020-03-19 20:14:22:077
10.079589,-2.06859,1.742979,8.0,49.84922,24.037933,384.0,NaN,1.44,9.5,0.0,22 / 26,295527,2020-03-19 20:14:22:577
6.440403,-2.791639,0.804452,8.0,49.84922,24.037933,384.0,NaN,1.44,9.5,0.0,22 / 26,296027,2020-03-19 20:14:23:077
15.844827,-1.814805,0.560243,8.0,49.84922,24.037933,384.0,NaN,1.44,9.5,0.0,22 / 26,296527,2020-03-19 20:14:23:577
12.186486,-2.8491,0.363919,8.0,49.84922,24.037933,384.0,NaN,1.44,9.5,0.0,22 / 26,297027,2020-03-19 20:14:24:077
10.769119,-6.603208,1.063026,8.0,49.84922,24.037933,384.0,NaN,1.44,9.5,0.0,22 / 26,297527,2020-03-19 20:14:24:577
17.535133,-1.302446,4.429273,8.0,49.84922,24.037933,384.0,NaN,1.44,9.5,0.0,22 / 26,298027,2020-03-19 20:14:25:077
9.193734,-5.056554,1.910573,8.0,49.84922,24.037933,384.0,NaN,1.44,9.5,0.0,22 / 26,298528,2020-03-19 20:14:25:578
9.222465,-1.862689,3.021483,8.0,49.84922,24.037933,384.0,NaN,1.44,9.5,0.0,22 / 26,299027,2020-03-19 20:14:26:077
5.990293,-2.413355,-0.603339,8.0,49.84922,24.037933,384.0,NaN,1.44,9.5,0.0,22 / 26,299527,2020-03-19 20:14:26:577
7.61835,0.081403,0.134075,8.0,49.84922,24.037933,384.0,NaN,1.44,9.5,0.0,22 / 26,300027,2020-03-19 20:14:27:077
10.132261,-7.07726,2.686294,8.0,49.84922,24.037933,384.0,NaN,1.44,9.5,0.0,22 / 26,300527,2020-03-19 20:14:27:577
9.476251,-7.417237,2.796428,8.0,49.84922,24.037933,384.0,NaN,1.44,9.5,0.0,22 / 26,301028,2020-03-19 20:14:28:078
16.2279,-3.155558,4.007894,8.0,49.84922,24.037933,384.0,NaN,1.44,9.5,0.0,22 / 26,301528,2020-03-19 20:14:28:578
7.551312,-7.656657,1.704672,8.0,49.84922,24.037933,384.0,NaN,1.44,9.5,0.0,22 / 26,302028,2020-03-19 20:14:29:078
17.559074,-1.297657,3.361459,8.0,49.84922,24.037933,384.0,NaN,1.44,9.5,0.0,22 / 26,302527,2020-03-19 20:14:29:577
5.674258,-5.463568,2.499547,8.0,49.84922,24.037933,384.0,NaN,1.44,9.5,0.0,22 / 26,303028,2020-03-19 20:14:30:078
6.732496,-1.063026,0.081403,8.0,49.84922,24.037933,384.0,NaN,1.44,9.5,0.0,22 / 26,303528,2020-03-19 20:14:30:578
7.647081,-4.357447,2.39899,8.0,49.84922,24.037933,384.0,NaN,1.44,9.5,0.0,22 / 26,304027,2020-03-19 20:14:31:077
14.374787,-7.153875,2.676718,8.0,49.84922,24.037933,384.0,NaN,1.44,9.5,0.0,22 / 26,304527,2020-03-19 20:14:31:577
12.20564,-6.885724,1.192313,8.0,49.84922,24.037933,384.0,NaN,1.44,9.5,0.0,22 / 26,305027,2020-03-19 20:14:32:077
2.073379,-6.895301,1.944092,8.0,49.84922,24.037933,384.0,NaN,1.44,9.5,0.0,22 / 26,305527,2020-03-19 20:14:32:577
15.47612,-4.932055,-0.153229,8.0,49.84922,24.037933,384.0,NaN,1.44,9.5,0.0,22 / 26,306027,2020-03-19 20:14:33:077
4.611233,-6.023811,1.335965,8.0,49.84922,24.037933,384.0,NaN,1.44,9.5,0.0,22 / 26,306527,2020-03-19 20:14:33:577
7.661446,-2.082955,1.661576,8.0,49.84922,24.037933,384.0,NaN,1.44,9.5,0.0,22 / 26,307027,2020-03-19 20:14:34:077
8.169016,-2.298433,0.775721,8.0,49.84922,24.037933,384.0,NaN,1.44,9.5,0.0,22 / 26,307527,2020-03-19 20:14:34:577
15.629349,-3.624821,0.02873,8.0,49.84922,24.037933,384.0,NaN,1.44,9.5,0.0,22 / 26,308027,2020-03-19 20:14:35:077
11.712435,-4.697424,-0.421379,8.0,49.84922,24.037933,384.0,NaN,1.44,9.5,0.0,22 / 26,308527,2020-03-19 20:14:35:577
7.493851,-7.536947,2.183512,8.0,49.84922,24.037933,384.0,NaN,1.44,9.5,0.0,22 / 26,309027,2020-03-19 20:14:36:077
12.564771,-2.724601,0.785298,8.0,49.84922,24.037933,384.0,NaN,1.44,9.5,0.0,22 / 26,309527,2020-03-19 20:14:36:577
1.307234,-7.76679,3.533842,8.0,49.84922,24.037933,384.0,NaN,1.44,9.5,0.0,22 / 26,310027,2020-03-19 20:14:37:077
7.426814,-2.786851,1.604115,8.0,49.84922,24.037933,384.0,NaN,1.44,9.5,0.0,22 / 26,310527,2020-03-19 20:14:37:577
8.164228,-4.256891,0.852336,8.0,49.84922,24.037933,384.0,NaN,1.44,9.5,0.0,22 / 26,311027,2020-03-19 20:14:38:077
15.634137,-2.379836,-0.354342,8.0,49.84922,24.037933,384.0,NaN,1.44,9.5,0.0,22 / 26,311527,2020-03-19 20:14:38:577
9.964667,-5.482722,0.962469,8.0,49.84922,24.037933,384.0,NaN,1.44,9.5,0.0,22 / 26,312027,2020-03-19 20:14:39:077
7.642292,-7.536947,2.102109,8.0,49.84922,24.037933,384.0,NaN,1.44,9.5,0.0,22 / 26,312527,2020-03-19 20:14:39:577
11.123461,-1.23062,1.781286,8.0,49.84922,24.037933,384.0,NaN,1.44,9.5,0.0,22 / 26,313028,2020-03-19 20:14:40:078
7.129933,-2.815581,0.301669,8.0,49.84922,24.037933,384.0,NaN,1.44,9.5,0.0,22 / 26,313527,2020-03-19 20:14:40:577
6.799533,-2.920926,0.948104,8.0,49.84922,24.037933,384.0,NaN,1.44,9.5,0.0,22 / 26,314027,2020-03-19 20:14:41:077
6.584055,-2.882619,0.426168,8.0,49.84922,24.037933,384.0,NaN,1.44,9.5,0.0,0 / 0,314527,2020-03-19 20:14:41:577
14.891934,-1.795651,-1.221043,8.0,49.848206,24.03619,,NaN,,62.126,,0 / 1,315027,2020-03-19 20:14:42:077
8.805874,-6.14831,1.723825,8.0,49.848206,24.03619,,NaN,,62.126,,0 / 1,315528,2020-03-19 20:14:42:578
4.036624,-5.099649,1.637634,8.0,49.849022,24.039036,369.0,NaN,6.444,31.0,270.1,10 / 10,316028,2020-03-19 20:14:43:078
7.086837,-2.75812,2.738967,8.0,49.849022,24.039036,369.0,NaN,6.444,31.0,270.1,10 / 10,316528,2020-03-19 20:14:43:578
6.842629,-4.548983,3.361459,8.0,49.849022,24.039036,369.0,NaN,6.444,31.0,270.1,10 / 10,317027,2020-03-19 20:14:44:077
11.693281,-4.850652,-0.421379,8.0,49.849022,24.039036,369.0,NaN,6.444,31.0,270.1,10 / 10,317527,2020-03-19 20:14:44:577
9.097966,-5.774814,0.067038,8.0,49.849022,24.039036,369.0,NaN,6.444,31.0,270.1,10 / 10,318027,2020-03-19 20:14:45:077
13.761871,-4.754884,3.591303,8.0,49.849022,24.039036,369.0,NaN,6.444,31.0,270.1,10 / 10,318527,2020-03-19 20:14:45:577
18.162415,-3.342306,3.404555,8.0,49.849022,24.039036,369.0,NaN,6.444,31.0,270.1,10 / 10,319028,2020-03-19 20:14:46:078
4.481946,-7.038953,1.182736,8.0,49.849022,24.039036,369.0,NaN,6.444,31.0,270.1,10 / 10,319527,2020-03-19 20:14:46:577
6.05733,-2.178723,1.11091,8.0,49.849022,24.039036,369.0,NaN,6.444,31.0,270.1,10 / 10,320027,2020-03-19 20:14:47:077
8.499416,-4.165911,1.987187,8.0,49.849022,24.039036,369.0,NaN,6.444,31.0,270.1,10 / 10,320527,2020-03-19 20:14:47:577
15.452178,-8.777143,4.510676,8.0,49.849022,24.039036,369.0,NaN,6.444,31.0,270.1,10 / 10,321028,2020-03-19 20:14:48:078
12.143391,-5.612008,1.225831,8.0,49.849022,24.039036,369.0,NaN,6.444,31.0,270.1,10 / 10,321528,2020-03-19 20:14:48:578
10.922348,-2.983175,5.664682,8.0,49.849022,24.039036,369.0,NaN,6.444,31.0,270.1,10 / 10,322027,2020-03-19 20:14:49:077
14.599842,-4.754884,0.21069,8.0,49.849022,24.039036,369.0,NaN,6.444,31.0,270.1,10 / 10,322528,2020-03-19 20:14:49:578
3.27048,-5.84664,1.484405,8.0,49.849022,24.039036,369.0,NaN,6.444,31.0,270.1,10 / 10,323027,2020-03-19 20:14:50:077
4.893749,-1.853112,0.90022,8.0,49.849022,24.039036,369.0,NaN,6.444,31.0,270.1,10 / 10,323527,2020-03-19 20:14:50:577
8.006211,-4.309563,1.546654,8.0,49.849022,24.039036,369.0,NaN,6.444,31.0,270.1,10 / 10,324027,2020-03-19 20:14:51:077
12.545617,-3.916914,-0.560243,8.0,49.849022,24.039036,369.0,NaN,6.444,31.0,270.1,10 / 10,324527,2020-03-19 20:14:51:577
13.273455,-6.05733,1.862689,8.0,49.849022,24.039036,369.0,NaN,6.444,31.0,270.1,10 / 10,325027,2020-03-19 20:14:52:077
4.314352,-7.76679,3.399767,8.0,49.849022,24.039036,369.0,NaN,6.444,31.0,270.1,10 / 10,325527,2020-03-19 20:14:52:577
16.089035,-4.663905,4.41012,8.0,49.849022,24.039036,369.0,NaN,6.444,31.0,270.1,10 / 10,326028,2020-03-19 20:14:53:078
6.33027,-3.126827,0.081403,8.0,49.849022,24.039036,369.0,NaN,6.444,31.0,270.1,10 / 10,326527,2020-03-19 20:14:53:577
7.043741,0.167594,4.161122,8.0,49.849022,24.039036,369.0,NaN,6.444,31.0,270.1,10 / 10,327027,2020-03-19 20:14:54:077
7.177817,-2.853888,-0.751779,8.0,49.849022,24.039036,369.0,NaN,6.444,31.0,270.1,10 / 10,327527,2020-03-19 20:14:54:577
18.698715,-4.477157,3.60088,8.0,49.849022,24.039036,369.0,NaN,6.444,31.0,270.1,10 / 10,328027,2020-03-19 20:14:55:077
12.74673,-5.655104,2.944868,8.0,49.849022,24.039036,369.0,NaN,6.444,31.0,270.1,10 / 10,328527,2020-03-19 20:14:55:577
6.33027,-4.874594,3.011906,8.0,49.849022,24.039036,369.0,NaN,6.444,31.0,270.1,10 / 10,329027,2020-03-19 20:14:56:077
15.14572,0.756568,1.25935,8.0,49.849022,24.039036,369.0,NaN,6.444,31.0,270.1,10 / 10,329528,2020-03-19 20:14:56:578
3.294422,-5.300762,1.11091,8.0,49.849022,24.039036,369.0,NaN,6.444,31.0,270.1,10 / 10,330027,2020-03-19 20:14:57:077
4.884172,-1.972822,0.790087,8.0,49.849022,24.039036,369.0,NaN,6.444,31.0,270.1,10 / 10,330527,2020-03-19 20:14:57:577
7.105991,-3.29921,1.642422,8.0,49.849022,24.039036,369.0,NaN,6.444,31.0,270.1,10 / 10,331027,2020-03-19 20:14:58:077
15.729905,-4.036624,0.426168,8.0,49.849022,24.039036,369.0,NaN,6.444,31.0,270.1,10 / 10,331527,2020-03-19 20:14:58:577
12.497733,-4.702212,0.493206,8.0,49.849022,24.039036,369.0,NaN,6.444,31.0,270.1,10 / 10,332028,2020-03-19 20:14:59:078
4.879383,-5.554548,3.055001,8.0,49.849022,24.039036,369.0,NaN,6.444,31.0,270.1,10 / 10,332527,2020-03-19 20:14:59:577
8.202535,-1.546654,1.685518,8.0,49.849022,24.039036,369.0,NaN,6.444,31.0,270.1,10 / 10,333028,2020-03-19 20:15:00:078
8.2169,-1.460463,1.479617,8.0,49.849022,24.039036,369.0,NaN,6.444,31.0,270.1,10 / 10,333527,2020-03-19 20:15:00:577
16.390705,-0.100556,0.842759,8.0,49.849022,24.039036,369.0,NaN,6.444,31.0,270.1,10 / 10,334027,2020-03-19 20:15:01:077
8.403648,-3.265691,1.685518,8.0,49.849022,24.039036,369.0,NaN,6.444,31.0,270.1,10 / 10,334527,2020-03-19 20:15:01:577
14.690822,-4.481945,2.240973,8.0,49.849022,24.039036,369.0,NaN,6.444,31.0,270.1,10 / 10,335027,2020-03-19 20:15:02:077
13.230358,-3.567361,0.699107,8.0,49.849022,24.039036,369.0,NaN,6.444,31.0,270.1,10 / 10,335528,2020-03-19 20:15:02:578
4.548983,-4.884171,0.770933,8.0,49.849022,24.039036,369.0,NaN,6.444,31.0,270.1,10 / 10,336027,2020-03-19 20:15:03:077
5.142745,-2.336741,1.762132,8.0,49.849022,24.039036,369.0,NaN,6.444,31.0,270.1,10 / 10,336527,2020-03-19 20:15:03:577
9.768343,-3.845088,1.747767,8.0,49.849022,24.039036,369.0,NaN,6.444,31.0,270.1,10 / 10,337027,2020-03-19 20:15:04:077
15.44739,-3.462016,1.273715,8.0,49.849022,24.039036,369.0,NaN,6.444,31.0,270.1,10 / 10,337527,2020-03-19 20:15:04:577
17.190369,-4.501099,2.667141,8.0,49.849022,24.039036,369.0,NaN,6.444,31.0,270.1,10 / 10,338027,2020-03-19 20:15:05:077
9.763555,-7.910442,3.65834,8.0,49.849022,24.039036,369.0,NaN,6.444,31.0,270.1,10 / 10,338527,2020-03-19 20:15:05:577
11.923124,-4.754884,2.264915,8.0,49.849022,24.039036,369.0,NaN,6.444,31.0,270.1,10 / 10,339027,2020-03-19 20:15:06:077
8.169016,-3.308787,1.699883,8.0,49.849022,24.039036,369.0,NaN,6.444,31.0,270.1,10 / 10,339528,2020-03-19 20:15:06:578
7.541735,0.277727,0.622492,8.0,49.849022,24.039036,369.0,NaN,6.444,31.0,270.1,10 / 10,340028,2020-03-19 20:15:07:078
8.298303,-4.932055,5.315128,8.0,49.849022,24.039036,369.0,NaN,6.444,31.0,270.1,10 / 10,340528,2020-03-19 20:15:07:578
10.658986,-6.708553,0.703895,8.0,49.849022,24.039036,369.0,NaN,6.444,31.0,270.1,10 / 10,341028,2020-03-19 20:15:08:078
12.847286,-4.663905,2.753332,8.0,49.849022,24.039036,369.0,NaN,6.444,31.0,270.1,10 / 10,341528,2020-03-19 20:15:08:578
6.382942,-3.883395,2.030283,8.0,49.849022,24.039036,369.0,NaN,6.444,31.0,270.1,10 / 10,342027,2020-03-19 20:15:09:077
7.445967,-1.719037,0.023942,8.0,49.849022,24.039036,369.0,NaN,6.444,31.0,270.1,10 / 10,342527,2020-03-19 20:15:09:577
6.823475,-3.366248,1.158794,8.0,49.849022,24.039036,369.0,NaN,6.444,31.0,270.1,10 / 10,343027,2020-03-19 20:15:10:077
13.110648,0.627281,-1.158794,8.0,49.849022,24.039036,369.0,NaN,6.444,31.0,270.1,10 / 10,343528,2020-03-19 20:15:10:578
11.142614,-5.951985,1.25935,8.0,49.849022,24.039036,369.0,NaN,6.444,31.0,270.1,10 / 10,344027,2020-03-19 20:15:11:077
8.801085,-7.292738,1.244985,8.0,49.849022,24.039036,369.0,NaN,6.444,31.0,270.1,10 / 10,344527,2020-03-19 20:15:11:577
15.136143,0.229843,4.118027,8.0,49.849022,24.039036,369.0,NaN,6.444,31.0,270.1,10 / 10,345027,2020-03-19 20:15:12:077
6.607997,-3.634398,0.967258,8.0,49.849022,24.039036,369.0,NaN,6.444,31.0,270.1,10 / 10,345527,2020-03-19 20:15:12:577
15.820885,-0.138864,1.024718,8.0,49.849022,24.039036,369.0,NaN,6.444,31.0,270.1,10 / 10,346028,2020-03-19 20:15:13:078
11.15698,-4.118027,2.379837,8.0,49.849022,24.039036,369.0,NaN,6.444,31.0,270.1,10 / 10,346527,2020-03-19 20:15:13:577
7.292739,-5.746084,2.37026,8.0,49.849022,24.039036,369.0,NaN,6.444,31.0,270.1,10 / 10,347027,2020-03-19 20:15:14:077
14.690822,-4.635174,3.040636,8.0,49.849022,24.039036,369.0,NaN,6.444,31.0,270.1,10 / 10,347528,2020-03-19 20:15:14:578
4.577714,-4.448426,2.231396,8.0,49.849022,24.039036,369.0,NaN,6.444,31.0,270.1,10 / 10,348028,2020-03-19 20:15:15:078
2.873042,-1.996764,-0.90022,8.0,49.849022,24.039036,369.0,NaN,6.444,31.0,270.1,10 / 10,348528,2020-03-19 20:15:15:578
7.565677,-3.706224,1.570596,8.0,49.849022,24.039036,369.0,NaN,6.444,31.0,270.1,10 / 10,349027,2020-03-19 20:15:16:077
12.392388,-5.114014,2.092532,8.0,49.849022,24.039036,369.0,NaN,6.444,31.0,270.1,10 / 10,349527,2020-03-19 20:15:16:577
13.618219,-5.511452,2.006341,8.0,49.849022,24.039036,369.0,NaN,6.444,31.0,270.1,10 / 10,350027,2020-03-19 20:15:17:077
6.177041,-4.999093,0.014365,8.0,49.849022,24.039036,369.0,NaN,6.444,31.0,270.1,10 / 10,350527,2020-03-19 20:15:17:577
5.45878,-2.753332,2.274492,8.0,49.849022,24.039036,369.0,NaN,6.444,31.0,270.1,10 / 10,351028,2020-03-19 20:15:18:078
5.626374,-4.271256,1.752556,8.0,49.849022,24.039036,369.0,NaN,6.444,31.0,270.1,10 / 10,351527,2020-03-19 20:15:18:577
5.889736,-0.426168,-1.417367,8.0,49.849022,24.039036,369.0,NaN,6.444,31.0,270.1,10 / 10,352028,2020-03-19 20:15:19:078
9.380483,-5.521029,1.752556,8.0,49.849022,24.039036,369.0,NaN,6.444,31.0,270.1,10 / 10,352527,2020-03-19 20:15:19:577
11.109096,-7.781155,4.094085,8.0,49.849022,24.039036,369.0,NaN,6.444,31.0,270.1,10 / 10,353028,2020-03-19 20:15:20:078
16.208746,-3.725378,2.537854,8.0,49.849022,24.039036,369.0,NaN,6.444,31.0,270.1,10 / 10,353527,2020-03-19 20:15:20:577
1.987187,-4.76925,-0.622492,8.0,49.849022,24.039036,369.0,NaN,6.444,31.0,270.1,10 / 10,354028,2020-03-19 20:15:21:078
5.913678,-0.603339,-1.264138,8.0,49.849022,24.039036,369.0,NaN,6.444,31.0,270.1,10 / 10,354528,2020-03-19 20:15:21:578
9.907207,-7.694964,3.342306,8.0,49.849022,24.039036,369.0,NaN,6.444,31.0,270.1,10 / 10,355027,2020-03-19 20:15:22:077
11.228806,0.095768,-1.398214,8.0,49.849022,24.039036,369.0,NaN,6.444,31.0,270.1,10 / 10,355528,2020-03-19 20:15:22:578
11.353305,-7.987056,2.451663,8.0,49.849022,24.039036,369.0,NaN,6.444,31.0,270.1,10 / 10,356028,2020-03-19 20:15:23:078
11.932701,-4.76925,2.509123,8.0,49.849022,24.039036,369.0,NaN,6.444,31.0,270.1,10 / 10,356527,2020-03-19 20:15:23:577
17.60217,-2.341529,2.331953,8.0,49.849022,24.039036,369.0,NaN,6.444,31.0,270.1,10 / 10,357027,2020-03-19 20:15:24:077
5.832276,-4.065354,0.895431,8.0,49.849022,24.039036,369.0,NaN,6.444,31.0,270.1,10 / 10,357527,2020-03-19 20:15:24:577
4.697424,-1.034295,0.114922,8.0,49.849022,24.039036,369.0,NaN,6.444,31.0,270.1,10 / 10,358027,2020-03-19 20:15:25:077
10.184934,-3.055001,0.469264,8.0,49.849022,24.039036,369.0,NaN,6.444,31.0,270.1,10 / 10,358527,2020-03-19 20:15:25:577
14.350845,-6.301539,2.992752,8.0,49.849022,24.039036,369.0,NaN,6.444,31.0,270.1,10 / 10,359027,2020-03-19 20:15:26:077
9.016563,-6.847417,3.462016,8.0,49.849022,24.039036,369.0,NaN,6.444,31.0,270.1,10 / 10,359527,2020-03-19 20:15:26:577
11.209652,-7.474697,3.677494,8.0,49.849022,24.039036,369.0,NaN,6.444,31.0,270.1,10 / 10,360028,2020-03-19 20:15:27:078
14.379576,-4.692635,1.810017,8.0,49.849022,24.039036,369.0,NaN,6.444,31.0,270.1,10 / 10,360527,2020-03-19 20:15:27:577
4.730943,-5.731719,2.360683,8.0,49.849022,24.039036,369.0,NaN,6.444,31.0,270.1,10 / 10,361027,2020-03-19 20:15:28:077
5.252879,-1.786074,-0.746991,8.0,49.849022,24.039036,369.0,NaN,6.444,31.0,270.1,10 / 10,361527,2020-03-19 20:15:28:577
10.649409,-2.719813,2.427721,8.0,49.849022,24.039036,369.0,NaN,6.444,31.0,270.1,10 / 10,362027,2020-03-19 20:15:29:077
15.62456,-5.228936,0.033519,8.0,49.849022,24.039036,369.0,NaN,6.444,31.0,270.1,10 / 10,362527,2020-03-19 20:15:29:577
13.685257,-6.282385,0.737414,8.0,49.849022,24.039036,369.0,NaN,6.444,31.0,270.1,10 / 10,363027,2020-03-19 20:15:30:077
10.534488,-7.474697,2.087744,8.0,49.849022,24.039036,369.0,NaN,6.444,31.0,270.1,10 / 10,363528,2020-03-19 20:15:30:578
14.839262,-4.821922,2.059013,8.0,49.849022,24.039036,369.0,NaN,6.444,31.0,270.1,10 / 10,364027,2020-03-19 20:15:31:077
4.702213,-5.420472,1.254562,8.0,49.849022,24.039036,369.0,NaN,6.444,31.0,270.1,10 / 10,364527,2020-03-19 20:15:31:577
4.376601,-2.1883,-0.167594,8.0,49.849022,24.039036,369.0,NaN,6.444,31.0,270.1,10 / 10,365027,2020-03-19 20:15:32:077
6.742072,-4.730942,0.842759,8.0,49.849022,24.039036,369.0,NaN,6.444,31.0,270.1,10 / 10,365527,2020-03-19 20:15:32:577
11.942278,-4.098873,1.632846,8.0,49.849022,24.039036,369.0,NaN,6.444,31.0,270.1,10 / 10,366027,2020-03-19 20:15:33:077
12.009315,-3.936067,1.565808,8.0,49.849022,24.039036,369.0,NaN,6.444,31.0,270.1,10 / 10,366527,2020-03-19 20:15:33:577
7.445967,-6.358999,1.369483,8.0,49.849022,24.039036,369.0,NaN,6.444,31.0,270.1,10 / 10,367027,2020-03-19 20:15:34:077
13.388376,-5.348646,-1.010353,8.0,49.849022,24.039036,369.0,NaN,6.444,31.0,270.1,10 / 10,367527,2020-03-19 20:15:34:577
5.573702,-5.951985,2.149993,8.0,49.849022,24.039036,369.0,NaN,6.444,31.0,270.1,10 / 10,368027,2020-03-19 20:15:35:077
9.390059,-4.036624,1.886631,8.0,49.849022,24.039036,369.0,NaN,6.444,31.0,270.1,10 / 10,368527,2020-03-19 20:15:35:577
7.302315,-4.635174,2.116475,8.0,49.849022,24.039036,369.0,NaN,6.444,31.0,270.1,10 / 10,369027,2020-03-19 20:15:36:077
12.497733,1.240197,-0.440533,8.0,49.849022,24.039036,369.0,NaN,6.444,31.0,270.1,10 / 10,369527,2020-03-19 20:15:36:577
13.747506,-6.631939,2.485181,8.0,49.849022,24.039036,369.0,NaN,6.444,31.0,270.1,10 / 10,370027,2020-03-19 20:15:37:077
8.901642,-7.479486,1.503559,8.0,49.849022,24.039036,369.0,NaN,6.444,31.0,270.1,10 / 10,370527,2020-03-19 20:15:37:577
16.64449,-3.74932,5.238514,8.0,49.849022,24.039036,369.0,NaN,6.444,31.0,270.1,10 / 10,371027,2020-03-19 20:15:38:077
7.546524,-8.183381,1.613692,8.0,49.849022,24.039036,369.0,NaN,6.444,31.0,270.1,10 / 10,371527,2020-03-19 20:15:38:577
16.357185,-3.677494,3.241749,8.0,49.849022,24.039036,369.0,NaN,6.444,31.0,270.1,10 / 10,372027,2020-03-19 20:15:39:077
5.406108,-4.410119,1.522712,8.0,49.849022,24.039036,369.0,NaN,6.444,31.0,270.1,10 / 10,372527,2020-03-19 20:15:39:577
7.469909,0.268151,-0.818817,8.0,49.849022,24.039036,369.0,NaN,6.444,31.0,270.1,10 / 10,373027,2020-03-19 20:15:40:077
10.228029,-4.687847,1.656788,8.0,49.849022,24.039036,369.0,NaN,6.444,31.0,270.1,10 / 10,373527,2020-03-19 20:15:40:577
11.061212,-5.190629,1.891419,8.0,49.849022,24.039036,369.0,NaN,6.444,31.0,270.1,10 / 10,374027,2020-03-19 20:15:41:077
14.369999,-5.118803,3.854665,8.0,49.849022,24.039036,369.0,NaN,6.444,31.0,270.1,10 / 10,374527,2020-03-19 20:15:41:577
4.271256,-5.300762,1.527501,8.0,49.849022,24.039036,369.0,NaN,6.444,31.0,270.1,10 / 10,375027,2020-03-19 20:15:42:077
16.634912,-1.996764,3.045425,8.0,49.849022,24.039036,369.0,NaN,6.444,31.0,270.1,10 / 10,375527,2020-03-19 20:15:42:577
5.813122,-4.788403,1.201889,8.0,49.849022,24.039036,369.0,NaN,6.444,31.0,270.1,10 / 10,376027,2020-03-19 20:15:43:077
9.232041,0.521936,-0.497994,8.0,49.849022,24.039036,369.0,NaN,6.444,31.0,270.1,10 / 10,376527,2020-03-19 20:15:43:577
12.50731,-7.532158,2.528277,8.0,49.849022,24.039036,369.0,NaN,6.444,31.0,270.1,10 / 10,377028,2020-03-19 20:15:44:078
10.098742,-4.831499,1.857901,8.0,49.849022,24.039036,369.0,NaN,6.444,31.0,270.1,10 / 10,377527,2020-03-19 20:15:44:577
13.723564,-6.014234,2.044648,8.0,49.849022,24.039036,369.0,NaN,6.444,31.0,270.1,10 / 10,378028,2020-03-19 20:15:45:078
4.347871,-6.378153,3.294422,8.0,49.849022,24.039036,369.0,NaN,6.444,31.0,270.1,10 / 10,378527,2020-03-19 20:15:45:577
5.358224,-1.695095,0.708684,8.0,49.849022,24.039036,369.0,NaN,6.444,31.0,270.1,10 / 10,379027,2020-03-19 20:15:46:077
3.77805,-4.836287,0.679953,8.0,49.849022,24.039036,369.0,NaN,6.444,31.0,270.1,10 / 10,379527,2020-03-19 20:15:46:577
5.434838,-0.555455,1.187524,8.0,49.849022,24.039036,369.0,NaN,6.444,31.0,270.1,10 / 10,380027,2020-03-19 20:15:47:077
6.746861,-3.232172,2.667141,8.0,49.849022,24.039036,369.0,NaN,6.444,31.0,270.1,10 / 10,380527,2020-03-19 20:15:47:577
13.867216,-4.611232,2.600103,8.0,49.849022,24.039036,369.0,NaN,6.444,31.0,270.1,10 / 10,381027,2020-03-19 20:15:48:077
13.713987,-4.074931,2.743755,8.0,49.849022,24.039036,369.0,NaN,6.444,31.0,270.1,10 / 10,381527,2020-03-19 20:15:48:577
8.418014,-6.828263,1.144428,8.0,49.849022,24.039036,369.0,NaN,6.444,31.0,270.1,10 / 10,382027,2020-03-19 20:15:49:077
13.388376,-0.995988,3.916914,8.0,49.849022,24.039036,369.0,NaN,6.444,31.0,270.1,0 / 0,382527,2020-03-19 20:15:49:577
5.123592,-4.472368,1.508347,8.0,49.849022,24.039036,369.0,NaN,6.444,31.0,270.1,0 / 1,383027,2020-03-19 20:15:50:077
10.673351,-0.991199,2.513912,8.0,49.849022,24.039036,369.0,NaN,6.444,31.0,270.1,0 / 1,383528,2020-03-19 20:15:50:578
6.545748,-3.332729,2.288857,8.0,49.849022,24.039036,369.0,NaN,6.444,31.0,270.1,0 / 8,384027,2020-03-19 20:15:51:077
13.627796,-3.394978,-0.248997,8.0,49.849022,24.039036,369.0,NaN,6.444,31.0,270.1,0 / 8,384527,2020-03-19 20:15:51:577
13.192051,-3.41892,1.958457,8.0,49.849022,24.039036,369.0,NaN,6.444,31.0,270.1,24 / 28,385027,2020-03-19 20:15:52:077
8.614338,-8.322244,0.895431,8.0,49.849022,24.039036,369.0,NaN,6.444,31.0,270.1,24 / 28,385527,2020-03-19 20:15:52:577
14.911088,-1.206678,3.96001,8.0,49.849022,24.039036,369.0,NaN,6.444,31.0,270.1,22 / 29,386027,2020-03-19 20:15:53:077
1.403002,-3.476381,4.879383,8.0,49.849022,24.039036,369.0,NaN,6.444,31.0,270.1,22 / 29,386527,2020-03-19 20:15:53:577
-1.714248,3.193865,5.018247,8.0,49.849022,24.039036,369.0,NaN,6.444,31.0,270.1,22 / 29,387028,2020-03-19 20:15:54:078