ACCELEROMETER X (m/s²),ACCELEROMETER Y (m/s²),ACCELEROMETER Z (m/s²),PROXIMITY (m),LOCATION Latitude : ,LOCATION Longitude : ,LOCATION Altitude ( m),LOCATION Altitude-google ( m),LOCATION Speed ( Kmh),LOCATION Accuracy ( m),LOCATION ORIENTATION (°),Satellites in range,Time since start in ms ,YYYY-MO-DD HH-MI-SS_SSS
-3.016694,1.905785,3.05979,8.0,,,,NaN,,,,0 / 6,26,2020-03-11 10:39:30:485
-2.533065,1.25935,9.950302,8.0,,,,NaN,,,,0 / 6,527,2020-03-11 10:39:30:986
0.890643,2.37026,6.263232,8.0,,,,NaN,,,,0 / 6,1026,2020-03-11 10:39:31:485
0.881066,3.639187,8.643068,8.0,,,,NaN,,,,0 / 7,1527,2020-03-11 10:39:31:986
-1.312023,3.002329,8.590396,8.0,,,,NaN,,,,0 / 7,2027,2020-03-11 10:39:32:486
3.045425,5.204995,11.391612,8.0,,,,NaN,,,,0 / 10,2526,2020-03-11 10:39:32:985
0.483629,4.783615,13.019669,8.0,,,,NaN,,,,0 / 10,3027,2020-03-11 10:39:33:486
7.838617,1.010353,2.767697,8.0,,,,NaN,,,,0 / 10,3526,2020-03-11 10:39:33:985
8.106767,1.766921,2.154782,8.0,,,,NaN,,,,0 / 10,4026,2020-03-11 10:39:34:485
0.095768,-0.502782,0.354342,0.0,,,,NaN,,,,0 / 10,4527,2020-03-11 10:39:34:986
6.019023,-1.369483,0.742203,0.0,,,,NaN,,,,0 / 10,5026,2020-03-11 10:39:35:485
5.425261,-0.004788,0.694319,0.0,,,,NaN,,,,0 / 12,5527,2020-03-11 10:39:35:986
5.961562,-0.756568,1.747767,0.0,,,,NaN,,,,0 / 12,6027,2020-03-11 10:39:36:486
12.957419,-3.739743,2.916138,0.0,49.82887,24.046238,335.0,NaN,4.392,31.500002,355.8,10 / 13,6526,2020-03-11 10:39:36:985
12.023681,-5.099649,5.722142,0.0,49.82887,24.046238,335.0,NaN,4.392,31.500002,355.8,10 / 13,7027,2020-03-11 10:39:37:486
14.705187,0.493206,-0.138864,0.0,49.82887,24.046238,335.0,NaN,4.392,31.500002,355.8,10 / 13,7527,2020-03-11 10:39:37:986
9.605537,0.967258,1.197101,0.0,49.82887,24.046238,335.0,NaN,4.392,31.500002,355.8,10 / 13,8027,2020-03-11 10:39:38:486
7.632715,-1.690306,-0.555455,0.0,49.82887,24.046238,335.0,NaN,4.392,31.500002,355.8,10 / 13,8527,2020-03-11 10:39:38:986
4.577714,0.296881,0.047884,0.0,49.82887,24.046238,335.0,NaN,4.392,31.500002,355.8,10 / 13,9026,2020-03-11 10:39:39:485
5.894525,-0.536301,-0.181959,0.0,49.82887,24.046238,335.0,NaN,4.392,31.500002,355.8,10 / 13,9527,2020-03-11 10:39:39:986
5.070919,0.004788,0.402226,0.0,49.82887,24.046238,335.0,NaN,4.392,31.500002,355.8,10 / 13,10027,2020-03-11 10:39:40:486
8.60955,0.890643,1.316811,0.0,49.82887,24.046238,335.0,NaN,4.392,31.500002,355.8,10 / 13,10527,2020-03-11 10:39:40:986
7.422025,-2.806004,9.840169,0.0,49.82887,24.046238,335.0,NaN,4.392,31.500002,355.8,10 / 13,11027,2020-03-11 10:39:41:486
12.957419,-0.68953,1.417368,0.0,49.82887,24.046238,335.0,NaN,4.392,31.500002,355.8,10 / 13,11527,2020-03-11 10:39:41:986
12.445061,0.387861,-4.984728,0.0,49.82887,24.046238,335.0,NaN,4.392,31.500002,355.8,10 / 13,12027,2020-03-11 10:39:42:486
8.772355,1.201889,-1.182736,0.0,49.82887,24.046238,335.0,NaN,4.392,31.500002,355.8,10 / 13,12527,2020-03-11 10:39:42:986
4.175488,-1.580173,0.306458,0.0,49.82887,24.046238,335.0,NaN,4.392,31.500002,355.8,10 / 13,13027,2020-03-11 10:39:43:486
8.748413,0.943315,0.167594,0.0,49.82887,24.046238,335.0,NaN,4.392,31.500002,355.8,10 / 13,13526,2020-03-11 10:39:43:985
5.209783,-1.752556,0.80924,0.0,49.82887,24.046238,335.0,NaN,4.392,31.500002,355.8,10 / 13,14026,2020-03-11 10:39:44:485
7.000646,-2.882619,1.757344,0.0,49.82887,24.046238,335.0,NaN,4.392,31.500002,355.8,10 / 13,14527,2020-03-11 10:39:44:986
16.486473,-2.873042,-3.289633,0.0,49.82887,24.046238,335.0,NaN,4.392,31.500002,355.8,10 / 13,15027,2020-03-11 10:39:45:486
8.700529,-5.683835,8.422802,0.0,49.82887,24.046238,335.0,NaN,4.392,31.500002,355.8,10 / 13,15527,2020-03-11 10:39:45:986
8.743625,-0.402226,1.900996,0.0,49.82887,24.046238,335.0,NaN,4.392,31.500002,355.8,10 / 13,16027,2020-03-11 10:39:46:486
8.729259,-1.508347,0.320823,0.0,49.82887,24.046238,335.0,NaN,4.392,31.500002,355.8,10 / 13,16527,2020-03-11 10:39:46:986
9.811439,-0.876278,-0.306458,0.0,49.82887,24.046238,335.0,NaN,4.392,31.500002,355.8,10 / 13,17027,2020-03-11 10:39:47:486
9.337387,-0.574608,1.11091,0.0,49.82887,24.046238,335.0,NaN,4.392,31.500002,355.8,10 / 13,17528,2020-03-11 10:39:47:987
10.635044,-1.082179,1.675941,0.0,49.82887,24.046238,335.0,NaN,4.392,31.500002,355.8,10 / 13,18026,2020-03-11 10:39:48:485
7.982269,-2.408567,0.536301,0.0,49.82887,24.046238,335.0,NaN,4.392,31.500002,355.8,10 / 13,18526,2020-03-11 10:39:48:985
10.711658,-2.94008,1.23062,0.0,49.82887,24.046238,335.0,NaN,4.392,31.500002,355.8,10 / 13,19027,2020-03-11 10:39:49:486
9.193734,-0.804452,0.651223,0.0,49.82887,24.046238,335.0,NaN,4.392,31.500002,355.8,10 / 13,19527,2020-03-11 10:39:49:986
11.180922,-0.292093,0.632069,0.0,49.82887,24.046238,335.0,NaN,4.392,31.500002,355.8,10 / 13,20027,2020-03-11 10:39:50:486
13.709199,-6.004657,6.004658,0.0,49.82887,24.046238,335.0,NaN,4.392,31.500002,355.8,10 / 13,20527,2020-03-11 10:39:50:986
11.056423,-1.632845,1.168371,0.0,49.82887,24.046238,335.0,NaN,4.392,31.500002,355.8,10 / 13,21027,2020-03-11 10:39:51:486
12.421119,0.301669,-4.381389,0.0,49.82887,24.046238,335.0,NaN,4.392,31.500002,355.8,10 / 13,21527,2020-03-11 10:39:51:986
9.030929,-0.407014,0.483629,0.0,49.82887,24.046238,335.0,NaN,4.392,31.500002,355.8,10 / 13,22027,2020-03-11 10:39:52:486
4.376601,-1.091756,0.11971,0.0,49.82887,24.046238,335.0,NaN,4.392,31.500002,355.8,10 / 13,22527,2020-03-11 10:39:52:986
4.644751,-2.078167,-0.407014,0.0,49.82887,24.046238,335.0,NaN,4.392,31.500002,355.8,10 / 13,23026,2020-03-11 10:39:53:485
6.114791,0.905008,3.284845,0.0,49.82887,24.046238,335.0,NaN,4.392,31.500002,355.8,10 / 13,23527,2020-03-11 10:39:53:986
11.587936,-1.182736,5.075708,0.0,49.82887,24.046238,335.0,NaN,4.392,31.500002,355.8,10 / 13,24026,2020-03-11 10:39:54:485
11.310209,-3.979163,2.643199,0.0,49.82887,24.046238,335.0,NaN,4.392,31.500002,355.8,10 / 13,24526,2020-03-11 10:39:54:985
12.813767,1.56102,-2.853888,0.0,49.82887,24.046238,335.0,NaN,4.392,31.500002,355.8,10 / 13,25026,2020-03-11 10:39:55:485
10.232818,-0.138864,1.015142,0.0,49.82887,24.046238,335.0,NaN,4.392,31.500002,355.8,10 / 13,25527,2020-03-11 10:39:55:986
12.98615,-2.135628,-4.88896,0.0,49.82887,24.046238,335.0,NaN,4.392,31.500002,355.8,10 / 13,26026,2020-03-11 10:39:56:485
8.552089,0.23942,0.790087,0.0,49.82887,24.046238,335.0,NaN,4.392,31.500002,355.8,10 / 13,26526,2020-03-11 10:39:56:985
3.672706,-1.120486,1.886631,0.0,49.82887,24.046238,335.0,NaN,4.392,31.500002,355.8,10 / 13,27026,2020-03-11 10:39:57:485
7.996634,-3.404555,0.138864,0.0,49.82887,24.046238,335.0,NaN,4.392,31.500002,355.8,10 / 13,27527,2020-03-11 10:39:57:986
11.281479,-5.439626,0.790087,0.0,49.82887,24.046238,335.0,NaN,4.392,31.500002,355.8,10 / 13,28026,2020-03-11 10:39:58:485
10.817003,-7.503428,5.233725,0.0,49.82887,24.046238,335.0,NaN,4.392,31.500002,355.8,10 / 13,28526,2020-03-11 10:39:58:985
13.005303,1.68073,0.751779,0.0,49.82887,24.046238,335.0,NaN,4.392,31.500002,355.8,10 / 13,29026,2020-03-11 10:39:59:485
10.591949,-0.766144,-2.269703,0.0,49.82887,24.046238,335.0,NaN,4.392,31.500002,355.8,10 / 13,29527,2020-03-11 10:39:59:986
11.822568,0.933739,0.35913,0.0,49.82887,24.046238,335.0,NaN,4.392,31.500002,355.8,10 / 13,30027,2020-03-11 10:40:00:486
8.599973,-1.13964,-1.359906,0.0,49.82887,24.046238,335.0,NaN,4.392,31.500002,355.8,10 / 13,30527,2020-03-11 10:40:00:986
5.353435,-0.603339,1.010353,0.0,49.82887,24.046238,335.0,NaN,4.392,31.500002,355.8,10 / 13,31027,2020-03-11 10:40:01:486
7.790733,0.172383,0.986411,0.0,49.82887,24.046238,335.0,NaN,4.392,31.500002,355.8,10 / 13,31527,2020-03-11 10:40:01:986
10.481815,-2.288857,6.943185,0.0,49.82887,24.046238,335.0,NaN,4.392,31.500002,355.8,10 / 13,32027,2020-03-11 10:40:02:486
13.259089,-1.106121,0.172383,0.0,49.82887,24.046238,335.0,NaN,4.392,31.500002,355.8,10 / 13,32527,2020-03-11 10:40:02:986
12.761095,-1.848324,-3.65834,0.0,49.82887,24.046238,335.0,NaN,4.392,31.500002,355.8,10 / 13,33027,2020-03-11 10:40:03:486
9.323022,0.732626,-0.397437,0.0,49.82887,24.046238,335.0,NaN,4.392,31.500002,355.8,10 / 13,33526,2020-03-11 10:40:03:985
3.787627,-0.909797,1.206678,0.0,49.82887,24.046238,335.0,NaN,4.392,31.500002,355.8,10 / 13,34027,2020-03-11 10:40:04:486
8.604761,0.339977,1.398214,0.0,49.82887,24.046238,335.0,NaN,4.392,31.500002,355.8,10 / 13,34527,2020-03-11 10:40:04:986
5.396531,-1.891419,1.024718,0.0,49.82887,24.046238,335.0,NaN,4.392,31.500002,355.8,10 / 13,35026,2020-03-11 10:40:05:485
6.042965,-2.557007,-0.742202,0.0,49.82887,24.046238,335.0,NaN,4.392,31.500002,355.8,10 / 13,35526,2020-03-11 10:40:05:985
10.726024,-0.646434,-1.130063,0.0,49.82887,24.046238,335.0,NaN,4.392,31.500002,355.8,10 / 13,36027,2020-03-11 10:40:06:486
8.925584,-2.025495,2.647987,0.0,49.82887,24.046238,335.0,NaN,4.392,31.500002,355.8,10 / 13,36527,2020-03-11 10:40:06:986
4.161122,-1.762132,1.37906,0.0,49.82887,24.046238,335.0,NaN,4.392,31.500002,355.8,10 / 13,42815,2020-03-11 10:40:13:274
7.192182,-5.228936,3.337517,0.0,49.82887,24.046238,335.0,NaN,4.392,31.500002,355.8,10 / 13,43221,2020-03-11 10:40:13:680
14.537593,-0.550666,2.360683,0.0,49.82887,24.046238,335.0,NaN,4.392,31.500002,355.8,10 / 13,43721,2020-03-11 10:40:14:180
11.927913,-5.147533,0.402226,0.0,49.82887,24.046238,335.0,NaN,4.392,31.500002,355.8,10 / 13,44222,2020-03-11 10:40:14:681
6.933608,-0.593762,0.603339,0.0,49.82887,24.046238,335.0,NaN,4.392,31.500002,355.8,10 / 13,44720,2020-03-11 10:40:15:179
3.318364,-1.795651,1.297657,0.0,49.82887,24.046238,335.0,NaN,4.392,31.500002,355.8,10 / 13,45220,2020-03-11 10:40:15:679
6.579266,-4.304775,-0.646434,0.0,49.82887,24.046238,335.0,NaN,4.392,31.500002,355.8,10 / 13,45720,2020-03-11 10:40:16:179
12.172121,-2.944868,1.254562,0.0,49.82887,24.046238,335.0,NaN,4.392,31.500002,355.8,10 / 13,46220,2020-03-11 10:40:16:679
8.580819,-4.563348,-0.665588,0.0,49.82887,24.046238,335.0,NaN,4.392,31.500002,355.8,10 / 13,46721,2020-03-11 10:40:17:180
12.564771,-3.586514,0.196325,0.0,49.82887,24.046238,335.0,NaN,4.392,31.500002,355.8,10 / 13,47221,2020-03-11 10:40:17:680
3.711013,-6.655881,3.773262,0.0,49.82887,24.046238,335.0,NaN,4.392,31.500002,355.8,10 / 13,47720,2020-03-11 10:40:18:179
11.683704,-1.283292,-1.996764,0.0,49.82887,24.046238,335.0,NaN,4.392,31.500002,355.8,10 / 13,48220,2020-03-11 10:40:18:679
10.951078,-2.513912,-1.570596,0.0,49.82887,24.046238,335.0,NaN,4.392,31.500002,355.8,10 / 13,48720,2020-03-11 10:40:19:179
7.934385,1.177947,0.272939,0.0,49.82887,24.046238,335.0,NaN,4.392,31.500002,355.8,10 / 13,49221,2020-03-11 10:40:19:680
3.86903,-2.782062,0.54109,0.0,49.82887,24.046238,335.0,NaN,4.392,31.500002,355.8,10 / 13,49720,2020-03-11 10:40:20:179
10.089166,-4.43885,-0.919373,0.0,49.82887,24.046238,335.0,NaN,4.392,31.500002,355.8,10 / 13,50221,2020-03-11 10:40:20:680
2.595315,-2.470816,0.962469,0.0,49.82887,24.046238,335.0,NaN,4.392,31.500002,355.8,10 / 13,50721,2020-03-11 10:40:21:180
6.071696,-5.592855,-0.617704,0.0,49.82887,24.046238,335.0,NaN,4.392,31.500002,355.8,10 / 13,51221,2020-03-11 10:40:21:680
8.178593,-6.631939,3.639187,0.0,49.82887,24.046238,335.0,NaN,4.392,31.500002,355.8,10 / 13,51721,2020-03-11 10:40:22:180
13.034034,-1.436521,-0.143652,0.0,49.82887,24.046238,335.0,NaN,4.392,31.500002,355.8,10 / 13,52220,2020-03-11 10:40:22:679
10.079589,0.392649,0.837971,0.0,49.82887,24.046238,335.0,NaN,4.392,31.500002,355.8,10 / 13,52720,2020-03-11 10:40:23:179
6.502652,-3.763685,2.183512,0.0,49.82887,24.046238,335.0,NaN,4.392,31.500002,355.8,10 / 13,53221,2020-03-11 10:40:23:680
4.209007,0.924162,1.326388,0.0,49.82887,24.046238,335.0,NaN,4.392,31.500002,355.8,10 / 13,53720,2020-03-11 10:40:24:179
4.874595,0.80924,5.535394,0.0,49.82887,24.046238,335.0,NaN,4.392,31.500002,355.8,10 / 13,54220,2020-03-11 10:40:24:679
5.133168,0.861913,1.503559,0.0,49.82887,24.046238,335.0,NaN,4.392,31.500002,355.8,10 / 13,54721,2020-03-11 10:40:25:180
4.783615,-0.148441,1.546654,0.0,49.82887,24.046238,335.0,NaN,4.392,31.500002,355.8,10 / 13,55221,2020-03-11 10:40:25:680
11.061212,-1.072602,2.346318,0.0,49.82887,24.046238,335.0,NaN,4.392,31.500002,355.8,10 / 13,55720,2020-03-11 10:40:26:179
12.770672,-6.028599,2.499547,0.0,49.82887,24.046238,335.0,NaN,4.392,31.500002,355.8,10 / 13,56220,2020-03-11 10:40:26:679
10.266336,-6.406883,8.461109,0.0,49.82887,24.046238,335.0,NaN,4.392,31.500002,355.8,10 / 13,56721,2020-03-11 10:40:27:180
12.172121,0.770933,1.149217,0.0,49.82887,24.046238,335.0,NaN,4.392,31.500002,355.8,10 / 13,57221,2020-03-11 10:40:27:680
9.006987,-1.757344,-0.866701,0.0,49.82887,24.046238,335.0,NaN,4.392,31.500002,355.8,10 / 13,57720,2020-03-11 10:40:28:179
6.426038,-0.459687,1.666364,0.0,49.82887,24.046238,335.0,NaN,4.392,31.500002,355.8,10 / 13,58220,2020-03-11 10:40:28:679
9.318233,-0.727837,-1.345541,0.0,49.82887,24.046238,335.0,NaN,4.392,31.500002,355.8,10 / 13,58721,2020-03-11 10:40:29:180
6.804322,-0.943315,1.345541,0.0,49.82887,24.046238,335.0,NaN,4.392,31.500002,355.8,10 / 13,59221,2020-03-11 10:40:29:680
7.714118,-0.158017,2.873042,0.0,49.82887,24.046238,335.0,NaN,4.392,31.500002,355.8,10 / 13,59721,2020-03-11 10:40:30:180
8.968679,-0.972046,3.093309,0.0,49.82887,24.046238,335.0,NaN,4.392,31.500002,355.8,10 / 13,60221,2020-03-11 10:40:30:680
10.998962,-0.574608,0.282516,0.0,49.82887,24.046238,335.0,NaN,4.392,31.500002,355.8,10 / 13,60721,2020-03-11 10:40:31:180
8.049306,-2.025495,1.699883,0.0,49.82887,24.046238,335.0,NaN,4.392,31.500002,355.8,10 / 13,61221,2020-03-11 10:40:31:680
10.486604,-2.39899,3.548207,0.0,49.82887,24.046238,335.0,NaN,4.392,31.500002,355.8,10 / 13,61720,2020-03-11 10:40:32:179
8.791509,-1.058237,2.796428,0.0,49.82887,24.046238,335.0,NaN,4.392,31.500002,355.8,10 / 13,62220,2020-03-11 10:40:32:679
10.290278,-1.25935,1.149217,0.0,49.82887,24.046238,335.0,NaN,4.392,31.500002,355.8,10 / 13,62721,2020-03-11 10:40:33:180
8.801085,-1.723825,-1.82917,0.0,49.82887,24.046238,335.0,NaN,4.392,31.500002,355.8,10 / 13,63220,2020-03-11 10:40:33:679
6.66067,0.052672,0.737414,0.0,49.82887,24.046238,335.0,NaN,4.392,31.500002,355.8,10 / 13,63720,2020-03-11 10:40:34:179
6.670246,-2.408567,1.537078,0.0,49.82887,24.046238,335.0,NaN,4.392,31.500002,355.8,10 / 13,64221,2020-03-11 10:40:34:680
5.042189,-2.695871,1.340753,0.0,49.82887,24.046238,335.0,NaN,4.392,31.500002,355.8,10 / 13,64721,2020-03-11 10:40:35:180
6.042965,1.321599,0.35913,0.0,49.82887,24.046238,335.0,NaN,4.392,31.500002,355.8,10 / 13,65221,2020-03-11 10:40:35:680
8.944737,-1.80044,0.632069,0.0,49.82887,24.046238,335.0,NaN,4.392,31.500002,355.8,10 / 13,65721,2020-03-11 10:40:36:180
8.844181,2.1883,-0.205901,0.0,49.82887,24.046238,335.0,NaN,4.392,31.500002,355.8,10 / 13,66221,2020-03-11 10:40:36:680
3.615245,-0.751779,1.417368,0.0,49.82887,24.046238,335.0,NaN,4.392,31.500002,355.8,10 / 13,66721,2020-03-11 10:40:37:180
1.321599,-2.059013,1.819593,0.0,49.82887,24.046238,335.0,NaN,4.392,31.500002,355.8,10 / 13,67221,2020-03-11 10:40:37:680
2.983175,-0.703895,0.387861,0.0,49.82887,24.046238,335.0,NaN,4.392,31.500002,355.8,10 / 13,67721,2020-03-11 10:40:38:180
1.407791,-2.94008,2.217031,0.0,49.82887,24.046238,335.0,NaN,4.392,31.500002,355.8,10 / 13,68221,2020-03-11 10:40:38:680
7.556101,-3.217807,2.528277,0.0,49.82887,24.046238,335.0,NaN,4.392,31.500002,355.8,10 / 13,68721,2020-03-11 10:40:39:180
14.417883,-6.038176,2.466028,0.0,49.82887,24.046238,335.0,NaN,4.392,31.500002,355.8,10 / 13,69220,2020-03-11 10:40:39:679
11.348516,-3.945644,1.776498,0.0,49.82887,24.046238,335.0,NaN,4.392,31.500002,355.8,10 / 13,69720,2020-03-11 10:40:40:179
12.559982,1.125275,0.45011,0.0,49.82887,24.046238,335.0,NaN,4.392,31.500002,355.8,10 / 13,70221,2020-03-11 10:40:40:680
10.237606,-1.201889,-1.47004,0.0,49.82887,24.046238,335.0,NaN,4.392,31.500002,355.8,10 / 13,70721,2020-03-11 10:40:41:180
12.263102,2.777274,1.063026,0.0,49.82887,24.046238,335.0,NaN,4.392,31.500002,355.8,10 / 13,71221,2020-03-11 10:40:41:680
13.785813,-1.015141,-2.346318,0.0,49.82887,24.046238,335.0,NaN,4.392,31.500002,355.8,10 / 13,71720,2020-03-11 10:40:42:179
6.311116,-0.78051,0.957681,0.0,49.82887,24.046238,335.0,NaN,4.392,31.500002,355.8,10 / 13,72220,2020-03-11 10:40:42:679
3.438074,-2.121263,1.719037,0.0,49.82887,24.046238,335.0,NaN,4.392,31.500002,355.8,10 / 13,72720,2020-03-11 10:40:43:179
5.90889,-4.012682,0.493206,0.0,49.82887,24.046238,335.0,NaN,4.392,31.500002,355.8,0 / 0,73221,2020-03-11 10:40:43:680
11.903971,-2.418144,0.828394,0.0,49.82887,24.046238,335.0,NaN,4.392,31.500002,355.8,0 / 0,73720,2020-03-11 10:40:44:179
7.728483,-0.105345,3.567361,0.0,49.82887,24.046238,335.0,NaN,4.392,31.500002,355.8,0 / 3,74221,2020-03-11 10:40:44:680
12.243947,-1.972822,0.311246,0.0,49.82887,24.046238,335.0,NaN,4.392,31.500002,355.8,0 / 3,74721,2020-03-11 10:40:45:180
9.969456,-1.757344,10.860099,0.0,49.82887,24.046238,335.0,NaN,4.392,31.500002,355.8,0 / 7,75221,2020-03-11 10:40:45:680
8.705317,-4.237737,9.433155,0.0,49.82887,24.046238,335.0,NaN,4.392,31.500002,355.8,0 / 7,75721,2020-03-11 10:40:46:180
16.342821,-2.126051,2.552219,0.0,49.82887,24.046238,335.0,NaN,4.392,31.500002,355.8,0 / 7,76220,2020-03-11 10:40:46:679
12.962208,1.73819,1.273715,0.0,49.82887,24.046238,335.0,NaN,4.392,31.500002,355.8,0 / 7,76721,2020-03-11 10:40:47:180
11.176133,-1.771709,-1.077391,0.0,49.82921,24.045029,362.0,NaN,3.24,18.5,359.7,11 / 11,77220,2020-03-11 10:40:47:679
6.574478,0.78051,0.804452,0.0,49.82921,24.045029,362.0,NaN,3.24,18.5,359.7,11 / 11,77721,2020-03-11 10:40:48:180
2.178724,-1.910573,1.297657,0.0,49.82921,24.045029,362.0,NaN,3.24,18.5,359.7,11 / 11,78220,2020-03-11 10:40:48:679
8.149863,-0.981623,1.144428,0.0,49.82921,24.045029,362.0,NaN,3.24,18.5,359.7,11 / 11,78721,2020-03-11 10:40:49:180
3.634398,-1.699883,1.733402,0.0,49.82921,24.045029,362.0,NaN,3.24,18.5,359.7,11 / 11,79221,2020-03-11 10:40:49:680
7.216124,-3.634398,-1.398214,0.0,49.82921,24.045029,362.0,NaN,3.24,18.5,359.7,11 / 11,79721,2020-03-11 10:40:50:180
11.209652,-0.248997,0.335188,0.0,49.82921,24.045029,362.0,NaN,3.24,18.5,359.7,11 / 11,80221,2020-03-11 10:40:50:680
7.671023,-1.187524,1.326388,0.0,49.82921,24.045029,362.0,NaN,3.24,18.5,359.7,11 / 11,80721,2020-03-11 10:40:51:180
16.021997,-0.981623,2.293645,0.0,49.82921,24.045029,362.0,NaN,3.24,18.5,359.7,11 / 11,81221,2020-03-11 10:40:51:680
13.153744,-4.414908,-1.173159,0.0,49.82921,24.045029,362.0,NaN,3.24,18.5,359.7,11 / 11,81721,2020-03-11 10:40:52:180
10.46745,1.805228,-1.742979,0.0,49.82921,24.045029,362.0,NaN,3.24,18.5,359.7,11 / 11,82221,2020-03-11 10:40:52:680
5.324705,-2.169147,0.622492,0.0,49.82921,24.045029,362.0,NaN,3.24,18.5,359.7,11 / 11,82720,2020-03-11 10:40:53:179
12.038046,2.154782,1.551443,0.0,49.82921,24.045029,362.0,NaN,3.24,18.5,359.7,11 / 11,83221,2020-03-11 10:40:53:680
7.445967,-1.517924,-0.153229,0.0,49.82921,24.045029,362.0,NaN,3.24,18.5,359.7,11 / 11,83721,2020-03-11 10:40:54:180
5.118803,0.033519,1.905785,0.0,49.82921,24.045029,362.0,NaN,3.24,18.5,359.7,11 / 11,84221,2020-03-11 10:40:54:680
3.462016,-0.636858,2.552219,0.0,49.82921,24.045029,362.0,NaN,3.24,18.5,359.7,11 / 11,84721,2020-03-11 10:40:55:180
7.867347,-2.681506,1.699883,0.0,49.82921,24.045029,362.0,NaN,3.24,18.5,359.7,11 / 11,85221,2020-03-11 10:40:55:680
12.531252,-5.286397,3.112462,0.0,49.82921,24.045029,362.0,NaN,3.24,18.5,359.7,11 / 11,85721,2020-03-11 10:40:56:180
4.922479,-4.49631,4.544195,0.0,49.82921,24.045029,362.0,NaN,3.24,18.5,359.7,11 / 11,86220,2020-03-11 10:40:56:679
14.762648,-0.92895,2.825158,0.0,49.82921,24.045029,362.0,NaN,3.24,18.5,359.7,11 / 11,86721,2020-03-11 10:40:57:180
7.536947,-1.661576,2.355895,0.0,49.82921,24.045029,362.0,NaN,3.24,18.5,359.7,11 / 11,87221,2020-03-11 10:40:57:680
13.986926,-0.885855,0.684742,0.0,49.82921,24.045029,362.0,NaN,3.24,18.5,359.7,11 / 11,87720,2020-03-11 10:40:58:179
12.3876,-0.679953,-4.860229,0.0,49.82921,24.045029,362.0,NaN,3.24,18.5,359.7,11 / 11,88221,2020-03-11 10:40:58:680
10.82658,2.006341,-1.288081,0.0,49.82921,24.045029,362.0,NaN,3.24,18.5,359.7,11 / 11,88721,2020-03-11 10:40:59:180
5.43005,-1.446098,-0.502782,0.0,49.82921,24.045029,362.0,NaN,3.24,18.5,359.7,11 / 11,89220,2020-03-11 10:40:59:679
5.248091,0.004788,1.651999,0.0,49.82921,24.045029,362.0,NaN,3.24,18.5,359.7,11 / 11,89720,2020-03-11 10:41:00:179
3.964798,-0.732626,2.140417,0.0,49.82921,24.045029,362.0,NaN,3.24,18.5,359.7,11 / 11,90221,2020-03-11 10:41:00:680
5.722142,-1.752556,-1.580173,0.0,49.82921,24.045029,362.0,NaN,3.24,18.5,359.7,11 / 11,90721,2020-03-11 10:41:01:180
5.410896,-0.081403,0.282516,0.0,49.82921,24.045029,362.0,NaN,3.24,18.5,359.7,11 / 11,91221,2020-03-11 10:41:01:680
4.999093,-1.23062,-0.162806,0.0,49.82921,24.045029,362.0,NaN,3.24,18.5,359.7,11 / 11,91721,2020-03-11 10:41:02:180
5.511452,-1.503559,3.126828,0.0,49.82921,24.045029,362.0,NaN,3.24,18.5,359.7,11 / 11,92220,2020-03-11 10:41:02:679
10.414778,-1.450886,4.165911,0.0,49.82921,24.045029,362.0,NaN,3.24,18.5,359.7,11 / 11,92720,2020-03-11 10:41:03:179
12.914324,-2.944868,6.813898,0.0,49.82921,24.045029,362.0,NaN,3.24,18.5,359.7,11 / 11,93221,2020-03-11 10:41:03:680
14.982914,-4.874594,6.277597,0.0,49.82921,24.045029,362.0,NaN,3.24,18.5,359.7,11 / 11,93721,2020-03-11 10:41:04:180
12.066776,2.724602,1.072602,0.0,49.82921,24.045029,362.0,NaN,3.24,18.5,359.7,11 / 11,94221,2020-03-11 10:41:04:680
12.109872,-2.006341,-1.699883,0.0,49.82921,24.045029,362.0,NaN,3.24,18.5,359.7,11 / 11,94721,2020-03-11 10:41:05:180
16.304514,0.062249,4.577714,0.0,49.82921,24.045029,362.0,NaN,3.24,18.5,359.7,11 / 11,95220,2020-03-11 10:41:05:679
14.767436,-1.843535,-4.462792,0.0,49.82921,24.045029,362.0,NaN,3.24,18.5,359.7,11 / 11,95720,2020-03-11 10:41:06:179
11.769896,-0.416591,-0.588974,0.0,49.82921,24.045029,362.0,NaN,3.24,18.5,359.7,11 / 11,96221,2020-03-11 10:41:06:680
9.126697,-1.719037,-1.244985,0.0,49.82921,24.045029,362.0,NaN,3.24,18.5,359.7,11 / 11,96721,2020-03-11 10:41:07:180
4.007894,-0.675165,1.819593,0.0,49.82921,24.045029,362.0,NaN,3.24,18.5,359.7,11 / 11,97221,2020-03-11 10:41:07:680
5.204995,0.02873,2.245761,0.0,49.82921,24.045029,362.0,NaN,3.24,18.5,359.7,11 / 11,97720,2020-03-11 10:41:08:179
11.324574,-1.120486,2.676718,0.0,49.82921,24.045029,362.0,NaN,3.24,18.5,359.7,11 / 11,98220,2020-03-11 10:41:08:679
11.520899,-6.41646,2.734178,0.0,49.82921,24.045029,362.0,NaN,3.24,18.5,359.7,11 / 11,98721,2020-03-11 10:41:09:180
9.030929,-2.873042,1.728614,0.0,49.82921,24.045029,362.0,NaN,3.24,18.5,359.7,11 / 11,99221,2020-03-11 10:41:09:680
12.737153,-4.635174,2.044648,0.0,49.82921,24.045029,362.0,NaN,3.24,18.5,359.7,11 / 11,99721,2020-03-11 10:41:10:180
7.541735,-4.529829,5.683835,0.0,49.82921,24.045029,362.0,NaN,3.24,18.5,359.7,11 / 11,100220,2020-03-11 10:41:10:679
14.686033,0.670377,1.47004,0.0,49.82921,24.045029,362.0,NaN,3.24,18.5,359.7,11 / 11,100720,2020-03-11 10:41:11:179
12.593501,-5.032612,-0.622492,0.0,49.82921,24.045029,362.0,NaN,3.24,18.5,359.7,11 / 11,101221,2020-03-11 10:41:11:680
7.292739,0.124498,1.388637,0.0,49.82921,24.045029,362.0,NaN,3.24,18.5,359.7,11 / 11,101721,2020-03-11 10:41:12:180
3.026271,-1.23062,1.383849,0.0,49.82921,24.045029,362.0,NaN,3.24,18.5,359.7,11 / 11,102220,2020-03-11 10:41:12:679
5.693412,-4.127603,-1.637634,0.0,49.82921,24.045029,362.0,NaN,3.24,18.5,359.7,11 / 11,102720,2020-03-11 10:41:13:179
4.505888,-1.790863,1.407791,0.0,49.82921,24.045029,362.0,NaN,3.24,18.5,359.7,11 / 11,103220,2020-03-11 10:41:13:679
5.827487,-2.437297,-0.488417,0.0,49.82921,24.045029,362.0,NaN,3.24,18.5,359.7,11 / 11,103721,2020-03-11 10:41:14:180
9.873688,0.21069,-0.881066,0.0,49.82921,24.045029,362.0,NaN,3.24,18.5,359.7,11 / 11,104221,2020-03-11 10:41:14:680
9.514558,-2.087744,6.488287,0.0,49.82921,24.045029,362.0,NaN,3.24,18.5,359.7,11 / 11,104721,2020-03-11 10:41:15:180
11.745954,-1.757344,1.714248,0.0,49.82921,24.045029,362.0,NaN,3.24,18.5,359.7,11 / 11,105221,2020-03-11 10:41:15:680
14.159308,1.465252,-2.882619,0.0,49.82921,24.045029,362.0,NaN,3.24,18.5,359.7,11 / 11,105720,2020-03-11 10:41:16:179
11.463438,0.866701,0.708684,0.0,49.82921,24.045029,362.0,NaN,3.24,18.5,359.7,11 / 11,106221,2020-03-11 10:41:16:680
5.679047,-1.647211,-0.004788,0.0,49.82921,24.045029,362.0,NaN,3.24,18.5,359.7,11 / 11,106721,2020-03-11 10:41:17:180
11.884817,1.364695,0.837971,0.0,49.82921,24.045029,362.0,NaN,3.24,18.5,359.7,11 / 11,107221,2020-03-11 10:41:17:680
7.723695,-1.699883,-0.732626,0.0,49.82921,24.045029,362.0,NaN,3.24,18.5,359.7,11 / 11,107721,2020-03-11 10:41:18:180
6.009446,0.02873,1.781286,0.0,49.82921,24.045029,362.0,NaN,3.24,18.5,359.7,11 / 11,108220,2020-03-11 10:41:18:679
3.682282,-0.948104,2.667141,0.0,49.82921,24.045029,362.0,NaN,3.24,18.5,359.7,11 / 11,108720,2020-03-11 10:41:19:179
9.423578,-2.614468,1.805228,0.0,49.82921,24.045029,362.0,NaN,3.24,18.5,359.7,11 / 11,109220,2020-03-11 10:41:19:679
10.726024,-4.745308,-0.435745,0.0,49.82921,24.045029,362.0,NaN,3.24,18.5,359.7,11 / 11,109720,2020-03-11 10:41:20:179
9.672575,-1.82917,2.389413,0.0,49.82921,24.045029,362.0,NaN,3.24,18.5,359.7,11 / 11,110220,2020-03-11 10:41:20:679
16.46732,-0.71826,1.862689,0.0,49.82921,24.045029,362.0,NaN,3.24,18.5,359.7,11 / 11,110721,2020-03-11 10:41:21:180
9.351752,-1.546654,6.698977,0.0,49.82921,24.045029,362.0,NaN,3.24,18.5,359.7,11 / 11,111221,2020-03-11 10:41:21:680
14.140155,-3.399766,-0.158017,0.0,49.82921,24.045029,362.0,NaN,3.24,18.5,359.7,11 / 11,111721,2020-03-11 10:41:22:180
16.270994,-1.11091,-0.435745,0.0,49.82921,24.045029,362.0,NaN,3.24,18.5,359.7,11 / 11,112221,2020-03-11 10:41:22:680
11.683704,1.833959,0.627281,0.0,49.82921,24.045029,362.0,NaN,3.24,18.5,359.7,11 / 11,112720,2020-03-11 10:41:23:179
7.541735,-1.968034,-0.545878,0.0,49.82921,24.045029,362.0,NaN,3.24,18.5,359.7,11 / 11,113220,2020-03-11 10:41:23:679
3.907337,-0.938527,1.795651,0.0,49.82921,24.045029,362.0,NaN,3.24,18.5,359.7,11 / 11,113721,2020-03-11 10:41:24:180
6.086061,-0.59855,2.312799,0.0,49.82921,24.045029,362.0,NaN,3.24,18.5,359.7,11 / 11,114221,2020-03-11 10:41:24:680
11.923124,-2.274491,10.400413,0.0,49.82921,24.045029,362.0,NaN,3.24,18.5,359.7,11 / 11,114721,2020-03-11 10:41:25:180
5.152323,0.723049,3.289633,0.0,49.82921,24.045029,362.0,NaN,3.24,18.5,359.7,11 / 11,115221,2020-03-11 10:41:25:680
9.639056,-1.963245,2.336741,0.0,49.82921,24.045029,362.0,NaN,3.24,18.5,359.7,11 / 11,115721,2020-03-11 10:41:26:180
7.445967,-6.133945,0.320823,0.0,49.82921,24.045029,362.0,NaN,3.24,18.5,359.7,11 / 11,116220,2020-03-11 10:41:26:679
6.464345,-5.281609,5.544971,0.0,49.82921,24.045029,362.0,NaN,3.24,18.5,359.7,11 / 11,116720,2020-03-11 10:41:27:179
16.610971,-1.723825,1.580173,0.0,49.82921,24.045029,362.0,NaN,3.24,18.5,359.7,11 / 11,117220,2020-03-11 10:41:27:679
13.091495,-3.385401,-1.905785,0.0,49.82921,24.045029,362.0,NaN,3.24,18.5,359.7,11 / 11,117720,2020-03-11 10:41:28:179
8.202535,0.234632,0.881066,0.0,49.82921,24.045029,362.0,NaN,3.24,18.5,359.7,11 / 11,118221,2020-03-11 10:41:28:680
2.221819,-1.278504,1.651999,0.0,49.82921,24.045029,362.0,NaN,3.24,18.5,359.7,11 / 11,118721,2020-03-11 10:41:29:180
10.146626,1.297657,0.411803,0.0,49.82921,24.045029,362.0,NaN,3.24,18.5,359.7,11 / 11,119221,2020-03-11 10:41:29:680
4.367024,-1.522712,0.924162,0.0,49.82921,24.045029,362.0,NaN,3.24,18.5,359.7,11 / 11,119720,2020-03-11 10:41:30:179
4.788404,-3.725378,-1.091756,0.0,49.82921,24.045029,362.0,NaN,3.24,18.5,359.7,11 / 11,120220,2020-03-11 10:41:30:679
9.591172,-0.454898,0.134075,0.0,49.82921,24.045029,362.0,NaN,3.24,18.5,359.7,11 / 11,120720,2020-03-11 10:41:31:179
9.610326,-0.861913,8.604761,0.0,49.82921,24.045029,362.0,NaN,3.24,18.5,359.7,11 / 11,121220,2020-03-11 10:41:31:679
10.381259,-1.939303,2.715025,0.0,49.82921,24.045029,362.0,NaN,3.24,18.5,359.7,11 / 11,121720,2020-03-11 10:41:32:179
15.35641,-1.23062,-0.392649,0.0,49.82921,24.045029,362.0,NaN,3.24,18.5,359.7,11 / 11,122221,2020-03-11 10:41:32:680
12.344504,1.13964,0.416591,0.0,49.82921,24.045029,362.0,NaN,3.24,18.5,359.7,11 / 11,122721,2020-03-11 10:41:33:180
15.68681,-2.217031,1.963245,0.0,49.82921,24.045029,362.0,NaN,3.24,18.5,359.7,11 / 11,123220,2020-03-11 10:41:33:679
12.11466,2.298434,1.398214,0.0,49.82921,24.045029,362.0,NaN,3.24,18.5,359.7,11 / 11,123720,2020-03-11 10:41:34:179
11.262324,-2.245761,-1.546654,0.0,49.82921,24.045029,362.0,NaN,3.24,18.5,359.7,11 / 11,124220,2020-03-11 10:41:34:679
6.50744,0.105345,1.292869,0.0,49.82921,24.045029,362.0,NaN,3.24,18.5,359.7,11 / 11,124720,2020-03-11 10:41:35:179
3.050213,-0.507571,1.719037,0.0,49.82921,24.045029,362.0,NaN,3.24,18.5,359.7,11 / 11,125221,2020-03-11 10:41:35:680
8.791509,-3.586514,-0.062249,0.0,49.82921,24.045029,362.0,NaN,3.24,18.5,359.7,0 / 0,125721,2020-03-11 10:41:36:180
11.080365,-5.923255,2.049437,0.0,49.82921,24.045029,362.0,NaN,3.24,18.5,359.7,0 / 0,126220,2020-03-11 10:41:36:679
3.835511,-2.097321,3.524265,0.0,49.82921,24.045029,362.0,NaN,3.24,18.5,359.7,0 / 4,126720,2020-03-11 10:41:37:179
10.481815,-4.908113,3.605668,0.0,49.82921,24.045029,362.0,NaN,3.24,18.5,359.7,0 / 4,127221,2020-03-11 10:41:37:680
5.99987,-2.806004,3.955221,0.0,49.82921,24.045029,362.0,NaN,3.24,18.5,359.7,0 / 5,127720,2020-03-11 10:41:38:179
13.450625,-1.546654,0.110133,0.0,49.82921,24.045029,362.0,NaN,3.24,18.5,359.7,0 / 5,128220,2020-03-11 10:41:38:679
12.77546,-0.665588,-3.773262,0.0,49.829994,24.04432,349.0,NaN,1.62,19.5,0.0,12 / 13,128721,2020-03-11 10:41:39:180
9.931149,-0.349553,-2.528277,0.0,49.829994,24.04432,349.0,NaN,1.62,19.5,0.0,12 / 13,129221,2020-03-11 10:41:39:680
6.26802,-1.675941,-0.248997,0.0,49.829994,24.04432,349.0,NaN,1.62,19.5,0.0,15 / 16,129720,2020-03-11 10:41:40:179
4.625598,1.628057,1.163582,0.0,49.829994,24.04432,349.0,NaN,1.62,19.5,0.0,15 / 16,130220,2020-03-11 10:41:40:679
5.324705,2.39899,3.021483,0.0,49.829994,24.04432,349.0,NaN,1.62,19.5,0.0,15 / 16,130721,2020-03-11 10:41:41:180
6.890513,2.624045,1.762132,0.0,49.829994,24.04432,349.0,NaN,1.62,19.5,0.0,15 / 16,131220,2020-03-11 10:41:41:679
3.653552,-1.489193,2.432509,0.0,49.829994,24.04432,349.0,NaN,1.62,19.5,0.0,15 / 16,131721,2020-03-11 10:41:42:180
9.959879,-1.944092,3.428497,0.0,49.829994,24.04432,349.0,NaN,1.62,19.5,0.0,15 / 16,132221,2020-03-11 10:41:42:680
9.069236,-6.153098,2.509123,0.0,49.829994,24.04432,349.0,NaN,1.62,19.5,0.0,15 / 16,132721,2020-03-11 10:41:43:180
8.911219,-5.300762,3.993528,0.0,49.829994,24.04432,349.0,NaN,1.62,19.5,0.0,15 / 16,133221,2020-03-11 10:41:43:680
16.567875,-0.92895,2.154782,0.0,49.829994,24.04432,349.0,NaN,1.62,19.5,0.0,15 / 16,133721,2020-03-11 10:41:44:180
12.148179,-5.099649,0.11971,0.0,49.829994,24.04432,349.0,NaN,1.62,19.5,0.0,15 / 16,134220,2020-03-11 10:41:44:679
9.212888,0.181959,1.039084,0.0,49.829994,24.04432,349.0,NaN,1.62,19.5,0.0,15 / 16,134720,2020-03-11 10:41:45:179
14.872781,-2.025495,-2.772485,0.0,49.829994,24.04432,349.0,NaN,1.62,19.5,0.0,15 / 16,135220,2020-03-11 10:41:45:679
12.349293,1.862689,-0.09098,0.0,49.829994,24.04432,349.0,NaN,1.62,19.5,0.0,15 / 16,135720,2020-03-11 10:41:46:179
9.366117,-1.781286,-0.593762,0.0,49.829994,24.04432,349.0,NaN,1.62,19.5,0.0,15 / 16,136221,2020-03-11 10:41:46:680
5.688624,-0.057461,1.426944,0.0,49.829994,24.04432,349.0,NaN,1.62,19.5,0.0,15 / 16,136721,2020-03-11 10:41:47:180
2.944868,-0.972046,2.772486,0.0,49.829994,24.04432,349.0,NaN,1.62,19.5,0.0,15 / 16,137221,2020-03-11 10:41:47:680
7.972692,-2.422932,1.647211,0.0,49.829994,24.04432,349.0,NaN,1.62,19.5,0.0,15 / 16,137721,2020-03-11 10:41:48:180
11.827356,-5.63595,1.455675,0.0,49.829994,24.04432,349.0,NaN,1.62,19.5,0.0,15 / 16,138220,2020-03-11 10:41:48:679
5.975928,-4.486734,4.19943,0.0,49.829994,24.04432,349.0,NaN,1.62,19.5,0.0,15 / 16,138721,2020-03-11 10:41:49:180
10.730812,-2.288857,0.866701,0.0,49.829994,24.04432,349.0,NaN,1.62,19.5,0.0,15 / 16,139221,2020-03-11 10:41:49:680
11.252748,-0.785298,5.056554,0.0,49.829994,24.04432,349.0,NaN,1.62,19.5,0.0,15 / 16,139721,2020-03-11 10:41:50:180
11.856087,-1.364695,1.460463,0.0,49.829994,24.04432,349.0,NaN,1.62,19.5,0.0,15 / 16,140221,2020-03-11 10:41:50:680
13.479356,-0.986411,-1.862689,0.0,49.829994,24.04432,349.0,NaN,1.62,19.5,0.0,15 / 16,140720,2020-03-11 10:41:51:179
10.821792,0.756568,-0.162806,0.0,49.829994,24.04432,349.0,NaN,1.62,19.5,0.0,15 / 16,141220,2020-03-11 10:41:51:679
6.200983,-2.001553,0.627281,0.0,49.829994,24.04432,349.0,NaN,1.62,19.5,0.0,15 / 16,141721,2020-03-11 10:41:52:180
3.969586,0.311246,1.149217,0.0,49.829994,24.04432,349.0,NaN,1.62,19.5,0.0,15 / 16,142220,2020-03-11 10:41:52:679
6.105214,1.996764,2.049437,0.0,49.829994,24.04432,349.0,NaN,1.62,19.5,0.0,15 / 16,142721,2020-03-11 10:41:53:180
5.573702,-0.507571,0.909797,0.0,49.829994,24.04432,349.0,NaN,1.62,19.5,0.0,15 / 16,143221,2020-03-11 10:41:53:680
4.606444,0.761356,1.958457,0.0,49.829994,24.04432,349.0,NaN,1.62,19.5,0.0,15 / 16,143720,2020-03-11 10:41:54:179
9.476251,-0.924162,3.806781,0.0,49.829994,24.04432,349.0,NaN,1.62,19.5,0.0,15 / 16,144220,2020-03-11 10:41:54:679
8.944737,-5.497087,2.724602,0.0,49.829994,24.04432,349.0,NaN,1.62,19.5,0.0,15 / 16,144721,2020-03-11 10:41:55:180
12.593501,-6.502651,6.320693,0.0,49.829994,24.04432,349.0,NaN,1.62,19.5,0.0,15 / 16,145221,2020-03-11 10:41:55:680
12.717999,0.885855,0.23942,0.0,49.829994,24.04432,349.0,NaN,1.62,19.5,0.0,15 / 16,145721,2020-03-11 10:41:56:180
11.463438,-0.751779,-2.360683,0.0,49.829994,24.04432,349.0,NaN,1.62,19.5,0.0,15 / 16,146221,2020-03-11 10:41:56:680
6.133945,0.148441,1.345541,0.0,49.829994,24.04432,349.0,NaN,1.62,19.5,0.0,15 / 16,146720,2020-03-11 10:41:57:179
11.96622,-2.413355,-1.072602,0.0,49.829994,24.04432,349.0,NaN,1.62,19.5,0.0,15 / 16,147220,2020-03-11 10:41:57:679
7.412449,0.067038,1.92015,0.0,49.829994,24.04432,349.0,NaN,1.62,19.5,0.0,15 / 16,147721,2020-03-11 10:41:58:180
2.791639,-1.37906,1.637634,0.0,49.829994,24.04432,349.0,NaN,1.62,19.5,0.0,15 / 16,148221,2020-03-11 10:41:58:680
5.401319,-3.730166,-1.503559,0.0,49.829994,24.04432,349.0,NaN,1.62,19.5,0.0,15 / 16,148721,2020-03-11 10:41:59:180
10.122684,0.876278,-1.04866,0.0,49.829994,24.04432,349.0,NaN,1.62,19.5,0.0,15 / 16,149220,2020-03-11 10:41:59:679
10.888829,-1.283292,9.404425,0.0,49.829994,24.04432,349.0,NaN,1.62,19.5,0.0,15 / 16,149720,2020-03-11 10:42:00:179
9.749189,-2.135628,4.525041,0.0,49.829994,24.04432,349.0,NaN,1.62,19.5,0.0,15 / 16,150220,2020-03-11 10:42:00:679
17.324444,-1.70946,1.187524,0.0,49.829994,24.04432,349.0,NaN,1.62,19.5,0.0,15 / 16,150720,2020-03-11 10:42:01:179
13.421895,-6.804321,7.25922,0.0,49.829994,24.04432,349.0,NaN,1.62,19.5,0.0,15 / 16,151220,2020-03-11 10:42:01:679
13.268666,-7.489063,6.196194,0.0,49.829994,24.04432,349.0,NaN,1.62,19.5,0.0,15 / 16,151721,2020-03-11 10:42:02:180
13.55597,1.043872,1.187524,0.0,49.829994,24.04432,349.0,NaN,1.62,19.5,0.0,15 / 16,152221,2020-03-11 10:42:02:680
11.48738,-5.884948,1.034295,0.0,49.829994,24.04432,349.0,NaN,1.62,19.5,0.0,15 / 16,152721,2020-03-11 10:42:03:180
7.091625,0.905008,1.177947,0.0,49.829994,24.04432,349.0,NaN,1.62,19.5,0.0,15 / 16,153220,2020-03-11 10:42:03:679
2.96881,-0.751779,2.035071,0.0,49.829994,24.04432,349.0,NaN,1.62,19.5,0.0,15 / 16,153720,2020-03-11 10:42:04:179
6.205771,-4.113238,-0.517148,0.0,49.829994,24.04432,349.0,NaN,1.62,19.5,0.0,15 / 16,154221,2020-03-11 10:42:04:680
10.912771,-1.005565,-1.01993,0.0,49.829994,24.04432,349.0,NaN,1.62,19.5,0.0,15 / 16,154721,2020-03-11 10:42:05:180
5.57849,-2.954445,-0.378284,0.0,49.829994,24.04432,349.0,NaN,1.62,19.5,0.0,15 / 16,155221,2020-03-11 10:42:05:680
11.573571,0.004788,-1.460463,0.0,49.829994,24.04432,349.0,NaN,1.62,19.5,0.0,15 / 16,155721,2020-03-11 10:42:06:180
7.934385,-0.488417,6.23929,0.0,49.829994,24.04432,349.0,NaN,1.62,19.5,0.0,15 / 16,156221,2020-03-11 10:42:06:680
13.632585,-0.368707,0.407014,0.0,49.829994,24.04432,349.0,NaN,1.62,19.5,0.0,15 / 16,156721,2020-03-11 10:42:07:180
12.617443,1.359907,-4.601655,0.0,49.829994,24.04432,349.0,NaN,1.62,19.5,0.0,15 / 16,157221,2020-03-11 10:42:07:680
10.13705,1.273715,-0.962469,0.0,49.829994,24.04432,349.0,NaN,1.62,19.5,0.0,15 / 16,157720,2020-03-11 10:42:08:179
4.778827,-1.436521,0.469264,0.0,49.829994,24.04432,349.0,NaN,1.62,19.5,0.0,15 / 16,158221,2020-03-11 10:42:08:680
5.784392,-2.858677,-0.220267,0.0,49.829994,24.04432,349.0,NaN,1.62,19.5,0.0,15 / 16,158721,2020-03-11 10:42:09:180
3.576938,-1.383848,1.580173,0.0,49.829994,24.04432,349.0,NaN,1.62,19.5,0.0,15 / 16,159221,2020-03-11 10:42:09:680
5.046977,-3.174711,-0.3304,0.0,49.829994,24.04432,349.0,NaN,1.62,19.5,0.0,15 / 16,159721,2020-03-11 10:42:10:180
12.310986,-2.671929,1.431733,0.0,49.829994,24.04432,349.0,NaN,1.62,19.5,0.0,15 / 16,160221,2020-03-11 10:42:10:680
9.255983,-6.53617,5.731719,0.0,49.829994,24.04432,349.0,NaN,1.62,19.5,0.0,15 / 16,160721,2020-03-11 10:42:11:180
12.157756,2.226608,-1.900996,0.0,49.829994,24.04432,349.0,NaN,1.62,19.5,0.0,15 / 16,161221,2020-03-11 10:42:11:680
13.038822,-4.395754,-1.326388,0.0,49.829994,24.04432,349.0,NaN,1.62,19.5,0.0,15 / 16,161720,2020-03-11 10:42:12:179
8.470686,0.842759,-1.843535,0.0,49.829994,24.04432,349.0,NaN,1.62,19.5,0.0,15 / 16,162220,2020-03-11 10:42:12:679
3.576938,-1.73819,-0.47884,0.0,49.829994,24.04432,349.0,NaN,1.62,19.5,0.0,15 / 16,162720,2020-03-11 10:42:13:179
15.231912,1.944092,-0.248997,0.0,49.829994,24.04432,349.0,NaN,1.62,19.5,0.0,15 / 16,163221,2020-03-11 10:42:13:680
15.064317,-6.53617,0.732626,0.0,49.829994,24.04432,349.0,NaN,1.62,19.5,0.0,15 / 16,163721,2020-03-11 10:42:14:180
10.333375,0.306458,0.517148,0.0,49.829994,24.04432,349.0,NaN,1.62,19.5,0.0,15 / 16,164220,2020-03-11 10:42:14:679
5.93762,-2.03986,0.201113,0.0,49.829994,24.04432,349.0,NaN,1.62,19.5,0.0,15 / 16,164720,2020-03-11 10:42:15:179
4.951209,-0.407014,1.728614,0.0,49.829994,24.04432,349.0,NaN,1.62,19.5,0.0,15 / 16,165221,2020-03-11 10:42:15:680
3.040636,-0.565032,0.828394,0.0,49.829994,24.04432,349.0,NaN,1.62,19.5,0.0,15 / 16,165720,2020-03-11 10:42:16:179
4.687847,-4.074931,0.229843,0.0,49.829994,24.04432,349.0,NaN,1.62,19.5,0.0,15 / 16,166220,2020-03-11 10:42:16:679
9.662998,-0.579397,-0.086191,0.0,49.829994,24.04432,349.0,NaN,1.62,19.5,0.0,15 / 16,166720,2020-03-11 10:42:17:179
3.074155,-1.25935,1.072602,0.0,49.829994,24.04432,349.0,NaN,1.62,19.5,0.0,15 / 16,167220,2020-03-11 10:42:17:679
7.120356,1.359907,0.919373,0.0,49.829994,24.04432,349.0,NaN,1.62,19.5,0.0,15 / 16,167720,2020-03-11 10:42:18:179
10.682928,-2.260126,8.834604,0.0,49.829994,24.04432,349.0,NaN,1.62,19.5,0.0,15 / 16,168221,2020-03-11 10:42:18:680
11.621455,-5.233725,9.730036,0.0,49.829994,24.04432,349.0,NaN,1.62,19.5,0.0,15 / 16,168721,2020-03-11 10:42:19:180
11.990162,-9.998186,10.275913,0.0,49.829994,24.04432,349.0,NaN,1.62,19.5,0.0,15 / 16,169221,2020-03-11 10:42:19:680
12.880805,1.35033,0.014365,0.0,49.829994,24.04432,349.0,NaN,1.62,19.5,0.0,15 / 16,169721,2020-03-11 10:42:20:180
12.253524,-4.242525,-1.862689,0.0,49.829994,24.04432,349.0,NaN,1.62,19.5,0.0,15 / 16,170220,2020-03-11 10:42:20:679
6.770803,0.497994,0.890643,0.0,49.829994,24.04432,349.0,NaN,1.62,19.5,0.0,15 / 16,170721,2020-03-11 10:42:21:180
19.67555,-2.772485,-4.209007,0.0,49.829994,24.04432,349.0,NaN,1.62,19.5,0.0,15 / 16,171221,2020-03-11 10:42:21:680
9.078813,0.560243,2.169147,0.0,49.829994,24.04432,349.0,NaN,1.62,19.5,0.0,15 / 16,171720,2020-03-11 10:42:22:179
2.595315,-1.039083,1.671153,0.0,49.829994,24.04432,349.0,NaN,1.62,19.5,0.0,15 / 16,172221,2020-03-11 10:42:22:680
6.6894,-3.758896,-0.191536,0.0,49.829994,24.04432,349.0,NaN,1.62,19.5,0.0,15 / 16,172720,2020-03-11 10:42:23:179
9.088389,-7.498639,3.653552,0.0,49.829994,24.04432,349.0,NaN,1.62,19.5,0.0,15 / 16,173221,2020-03-11 10:42:23:680
1.781286,-4.802768,3.940856,0.0,49.829994,24.04432,349.0,NaN,1.62,19.5,0.0,15 / 16,173721,2020-03-11 10:42:24:180
14.42746,0.746991,0.071826,0.0,49.829994,24.04432,349.0,NaN,1.62,19.5,0.0,15 / 16,174221,2020-03-11 10:42:24:680
12.014104,-2.748543,-1.331176,0.0,49.829994,24.04432,349.0,NaN,1.62,19.5,0.0,15 / 16,174721,2020-03-11 10:42:25:180
14.446613,1.235408,1.436521,0.0,49.829994,24.04432,349.0,NaN,1.62,19.5,0.0,15 / 16,175220,2020-03-11 10:42:25:679
12.545617,-5.650316,1.838747,0.0,49.829994,24.04432,349.0,NaN,1.62,19.5,0.0,15 / 16,175720,2020-03-11 10:42:26:179
6.617574,0.129287,0.751779,0.0,49.829994,24.04432,349.0,NaN,1.62,19.5,0.0,15 / 16,176220,2020-03-11 10:42:26:679
3.442862,-1.489193,1.968034,0.0,49.829994,24.04432,349.0,NaN,1.62,19.5,0.0,15 / 16,176721,2020-03-11 10:42:27:180
6.411672,-3.940856,0.067038,0.0,49.829994,24.04432,349.0,NaN,1.62,19.5,0.0,15 / 16,177220,2020-03-11 10:42:27:679
11.410766,-4.611232,2.48997,0.0,49.829994,24.04432,349.0,NaN,1.62,19.5,0.0,15 / 16,177721,2020-03-11 10:42:28:180
7.038953,-2.111686,4.635175,0.0,49.829994,24.04432,349.0,NaN,1.62,19.5,0.0,15 / 16,178221,2020-03-11 10:42:28:680
12.392388,-0.426168,1.757344,0.0,49.829994,24.04432,349.0,NaN,1.62,19.5,0.0,15 / 16,178721,2020-03-11 10:42:29:180
11.511322,-1.742979,11.951855,0.0,49.829994,24.04432,349.0,NaN,1.62,19.5,0.0,15 / 16,179220,2020-03-11 10:42:29:679
9.586384,-6.114791,8.09719,0.0,49.829994,24.04432,349.0,NaN,1.62,19.5,0.0,15 / 16,179720,2020-03-11 10:42:30:179
18.128895,-2.681506,2.705448,0.0,49.829994,24.04432,349.0,NaN,1.62,19.5,0.0,15 / 16,180220,2020-03-11 10:42:30:679
12.933477,2.217031,1.01993,0.0,49.829994,24.04432,349.0,NaN,1.62,19.5,0.0,15 / 16,180720,2020-03-11 10:42:31:179
12.531252,0.316035,-2.006341,0.0,49.829994,24.04432,349.0,NaN,1.62,19.5,0.0,15 / 16,181221,2020-03-11 10:42:31:680
6.402096,-0.019154,0.517148,0.0,49.829994,24.04432,349.0,NaN,1.62,19.5,0.0,15 / 16,181721,2020-03-11 10:42:32:180
2.853889,-0.272939,2.193089,0.0,49.829994,24.04432,349.0,NaN,1.62,19.5,0.0,15 / 16,182220,2020-03-11 10:42:32:679
6.813898,-3.193865,1.695095,0.0,49.829994,24.04432,349.0,NaN,1.62,19.5,0.0,0 / 0,182721,2020-03-11 10:42:33:180
2.595315,-1.35033,1.766921,0.0,49.829994,24.04432,349.0,NaN,1.62,19.5,0.0,0 / 0,183221,2020-03-11 10:42:33:680
6.110003,-3.74932,-1.264138,0.0,49.829994,24.04432,349.0,NaN,1.62,19.5,0.0,0 / 1,183720,2020-03-11 10:42:34:179
11.779472,-0.512359,0.799663,0.0,49.829994,24.04432,349.0,NaN,1.62,19.5,0.0,0 / 1,184221,2020-03-11 10:42:34:680
3.241749,-1.584961,4.103662,0.0,49.829994,24.04432,349.0,NaN,1.62,19.5,0.0,0 / 8,184721,2020-03-11 10:42:35:180
16.79293,-1.177947,3.433285,0.0,49.829994,24.04432,349.0,NaN,1.62,19.5,0.0,0 / 7,185221,2020-03-11 10:42:35:680
12.306197,-0.263362,-4.730942,0.0,49.829994,24.04432,349.0,NaN,1.62,19.5,0.0,0 / 7,185721,2020-03-11 10:42:36:180
8.422802,0.751779,0.943315,0.0,49.830532,24.044012,350.0,NaN,2.916,26.499998,0.0,10 / 11,186221,2020-03-11 10:42:36:680
4.323929,-1.072602,0.248997,0.0,49.830532,24.044012,350.0,NaN,2.916,26.499998,0.0,10 / 11,186720,2020-03-11 10:42:37:179
9.370906,1.805228,-0.35913,0.0,49.830532,24.044012,350.0,NaN,2.916,26.499998,0.0,10 / 11,187220,2020-03-11 10:42:37:679
2.863465,-1.40779,0.972046,0.0,49.830532,24.044012,350.0,NaN,2.916,26.499998,0.0,10 / 11,187721,2020-03-11 10:42:38:180
4.515465,-3.576937,-0.828394,0.0,49.830532,24.044012,350.0,NaN,2.916,26.499998,0.0,10 / 11,188221,2020-03-11 10:42:38:680
7.843405,1.671153,0.392649,0.0,49.830532,24.044012,350.0,NaN,2.916,26.499998,0.0,10 / 11,188721,2020-03-11 10:42:39:180
11.080365,-3.198653,4.333505,0.0,49.830532,24.044012,350.0,NaN,2.916,26.499998,0.0,10 / 11,189220,2020-03-11 10:42:39:679
15.188815,-8.173804,7.685388,0.0,49.830532,24.044012,350.0,NaN,2.916,26.499998,0.0,10 / 11,189721,2020-03-11 10:42:40:180
6.157887,-7.153875,5.291186,0.0,49.830532,24.044012,350.0,NaN,2.916,26.499998,0.0,10 / 11,190221,2020-03-11 10:42:40:680
13.115437,-1.268927,3.830723,0.0,49.830532,24.044012,350.0,NaN,2.916,26.499998,0.0,10 / 11,190721,2020-03-11 10:42:41:180
2.121263,-4.065354,3.945645,0.0,49.830532,24.044012,350.0,NaN,2.916,26.499998,0.0,10 / 11,191221,2020-03-11 10:42:41:680
16.663643,-0.679953,2.652776,0.0,49.830532,24.044012,350.0,NaN,2.916,26.499998,0.0,10 / 11,191721,2020-03-11 10:42:42:180
13.469779,-4.170699,1.034295,0.0,49.830532,24.044012,350.0,NaN,2.916,26.499998,0.0,10 / 11,192220,2020-03-11 10:42:42:679
8.303091,-0.746991,1.240197,0.0,49.830532,24.044012,350.0,NaN,2.916,26.499998,0.0,10 / 11,192721,2020-03-11 10:42:43:180
4.778827,-0.746991,0.105345,0.0,49.830532,24.044012,350.0,NaN,2.916,26.499998,0.0,10 / 11,193221,2020-03-11 10:42:43:680
4.587291,-2.149993,-1.80044,0.0,49.830532,24.044012,350.0,NaN,2.916,26.499998,0.0,10 / 11,193721,2020-03-11 10:42:44:180
8.983045,1.742979,-1.80044,0.0,49.830532,24.044012,350.0,NaN,2.916,26.499998,0.0,10 / 11,194221,2020-03-11 10:42:44:680
9.279925,-1.929727,10.108319,0.0,49.830532,24.044012,350.0,NaN,2.916,26.499998,0.0,10 / 11,194721,2020-03-11 10:42:45:180
6.253655,1.197101,1.819593,0.0,49.830532,24.044012,350.0,NaN,2.916,26.499998,0.0,10 / 11,195220,2020-03-11 10:42:45:679
9.921572,-0.746991,4.390966,0.0,49.830532,24.044012,350.0,NaN,2.916,26.499998,0.0,10 / 11,195720,2020-03-11 10:42:46:179
11.022904,-5.664681,11.520899,0.0,49.830532,24.044012,350.0,NaN,2.916,26.499998,0.0,10 / 11,196221,2020-03-11 10:42:46:680
13.589489,-7.273585,7.647081,0.0,49.830532,24.044012,350.0,NaN,2.916,26.499998,0.0,10 / 11,196721,2020-03-11 10:42:47:180
13.096283,1.321599,-0.186748,0.0,49.830532,24.044012,350.0,NaN,2.916,26.499998,0.0,10 / 11,197220,2020-03-11 10:42:47:679
13.666103,-2.087744,-3.05979,0.0,49.830532,24.044012,350.0,NaN,2.916,26.499998,0.0,10 / 11,197720,2020-03-11 10:42:48:179
6.464345,0.407014,0.785298,0.0,49.830532,24.044012,350.0,NaN,2.916,26.499998,0.0,10 / 11,198220,2020-03-11 10:42:48:679
3.102886,-1.024718,1.47004,0.0,49.830532,24.044012,350.0,NaN,2.916,26.499998,0.0,10 / 11,198721,2020-03-11 10:42:49:180
5.966351,0.56982,1.685518,0.0,49.830532,24.044012,350.0,NaN,2.916,26.499998,0.0,10 / 11,199221,2020-03-11 10:42:49:680
3.361459,-1.551443,1.407791,0.0,49.830532,24.044012,350.0,NaN,2.916,26.499998,0.0,10 / 11,199720,2020-03-11 10:42:50:179
5.956774,-4.141969,-0.057461,0.0,49.830532,24.044012,350.0,NaN,2.916,26.499998,0.0,10 / 11,200221,2020-03-11 10:42:50:680
11.827356,-2.408567,1.92015,0.0,49.830532,24.044012,350.0,NaN,2.916,26.499998,0.0,10 / 11,200721,2020-03-11 10:42:51:180
5.88016,-3.313575,4.252103,0.0,49.830532,24.044012,350.0,NaN,2.916,26.499998,0.0,10 / 11,201220,2020-03-11 10:42:51:679
12.674904,2.676718,0.608127,0.0,49.830532,24.044012,350.0,NaN,2.916,26.499998,0.0,10 / 11,201720,2020-03-11 10:42:52:179
13.239936,-6.794744,-1.37906,0.0,49.830532,24.044012,350.0,NaN,2.916,26.499998,0.0,10 / 11,202220,2020-03-11 10:42:52:679
9.974244,0.92895,0.081403,0.0,49.830532,24.044012,350.0,NaN,2.916,26.499998,0.0,10 / 11,202720,2020-03-11 10:42:53:179
12.512098,-1.010353,-3.29921,0.0,49.830532,24.044012,350.0,NaN,2.916,26.499998,0.0,10 / 11,203221,2020-03-11 10:42:53:680
11.611878,0.009577,0.785298,0.0,49.830532,24.044012,350.0,NaN,2.916,26.499998,0.0,10 / 11,203721,2020-03-11 10:42:54:180
6.263232,-1.61848,-0.344765,0.0,49.830532,24.044012,350.0,NaN,2.916,26.499998,0.0,10 / 11,204221,2020-03-11 10:42:54:680
4.084508,0.086191,1.556231,0.0,49.830532,24.044012,350.0,NaN,2.916,26.499998,0.0,10 / 11,204721,2020-03-11 10:42:55:180
6.200983,1.503559,2.887407,0.0,49.830532,24.044012,350.0,NaN,2.916,26.499998,0.0,10 / 11,205220,2020-03-11 10:42:55:679
12.847286,-1.460463,5.396531,0.0,49.830532,24.044012,350.0,NaN,2.916,26.499998,0.0,10 / 11,205721,2020-03-11 10:42:56:180
12.109872,-5.535394,7.211336,0.0,49.830532,24.044012,350.0,NaN,2.916,26.499998,0.0,10 / 11,206220,2020-03-11 10:42:56:679
14.705187,-5.774814,5.554548,0.0,49.830532,24.044012,350.0,NaN,2.916,26.499998,0.0,10 / 11,206721,2020-03-11 10:42:57:180
10.46745,-6.124367,8.408437,0.0,49.830532,24.044012,350.0,NaN,2.916,26.499998,0.0,10 / 11,207221,2020-03-11 10:42:57:680
13.589489,-5.377377,4.07972,0.0,49.830532,24.044012,350.0,NaN,2.916,26.499998,0.0,10 / 11,207721,2020-03-11 10:42:58:180
13.752295,2.470816,0.785298,0.0,49.830532,24.044012,350.0,NaN,2.916,26.499998,0.0,10 / 11,208221,2020-03-11 10:42:58:680
11.291056,-1.383848,-2.782062,0.0,49.830532,24.044012,350.0,NaN,2.916,26.499998,0.0,10 / 11,208720,2020-03-11 10:42:59:179
5.420473,-0.158017,0.866701,0.0,49.830532,24.044012,350.0,NaN,2.916,26.499998,0.0,10 / 11,209220,2020-03-11 10:42:59:679
2.331953,-0.833182,1.393425,0.0,49.830532,24.044012,350.0,NaN,2.916,26.499998,0.0,10 / 11,209720,2020-03-11 10:43:00:179
7.302315,-3.476381,-0.02873,0.0,49.830532,24.044012,350.0,NaN,2.916,26.499998,0.0,10 / 11,210221,2020-03-11 10:43:00:680
13.302185,-3.696647,2.212242,0.0,49.830532,24.044012,350.0,NaN,2.916,26.499998,0.0,10 / 11,210721,2020-03-11 10:43:01:180
6.579266,-4.118027,-0.56982,0.0,49.830532,24.044012,350.0,NaN,2.916,26.499998,0.0,10 / 11,211221,2020-03-11 10:43:01:680
11.99495,-1.297657,-0.311246,0.0,49.830532,24.044012,350.0,NaN,2.916,26.499998,0.0,10 / 11,211721,2020-03-11 10:43:02:180
10.232818,-1.177947,4.903325,0.0,49.830532,24.044012,350.0,NaN,2.916,26.499998,0.0,10 / 11,212221,2020-03-11 10:43:02:680
14.532804,-1.388637,2.801216,0.0,49.830532,24.044012,350.0,NaN,2.916,26.499998,0.0,10 / 11,212721,2020-03-11 10:43:03:180
13.560759,-0.68953,-3.667917,0.0,49.830532,24.044012,350.0,NaN,2.916,26.499998,0.0,10 / 11,213220,2020-03-11 10:43:03:679
9.68694,0.057461,-1.115698,0.0,49.830532,24.044012,350.0,NaN,2.916,26.499998,0.0,10 / 11,213721,2020-03-11 10:43:04:180
3.227384,-2.379836,1.403002,0.0,49.830532,24.044012,350.0,NaN,2.916,26.499998,0.0,10 / 11,214221,2020-03-11 10:43:04:680
4.745308,-4.209007,-1.40779,0.0,49.830532,24.044012,350.0,NaN,2.916,26.499998,0.0,10 / 11,214720,2020-03-11 10:43:05:179
9.102755,1.288081,-2.207454,0.0,49.830532,24.044012,350.0,NaN,2.916,26.499998,0.0,10 / 11,215220,2020-03-11 10:43:05:679
4.098873,-1.484405,-0.895431,0.0,49.830532,24.044012,350.0,NaN,2.916,26.499998,0.0,10 / 11,215720,2020-03-11 10:43:06:179
6.92882,0.708684,-0.186748,0.0,49.830532,24.044012,350.0,NaN,2.916,26.499998,0.0,10 / 11,216221,2020-03-11 10:43:06:680
11.889606,-1.977611,8.643068,0.0,49.830532,24.044012,350.0,NaN,2.916,26.499998,0.0,10 / 11,216721,2020-03-11 10:43:07:180
10.769119,-5.808333,10.433931,0.0,49.830532,24.044012,350.0,NaN,2.916,26.499998,0.0,10 / 11,217220,2020-03-11 10:43:07:679
15.040375,-3.021482,2.442086,0.0,49.830532,24.044012,350.0,NaN,2.916,26.499998,0.0,10 / 11,217720,2020-03-11 10:43:08:179
11.851298,1.838747,-0.316035,0.0,49.830532,24.044012,350.0,NaN,2.916,26.499998,0.0,10 / 11,218220,2020-03-11 10:43:08:679
10.175357,-0.588974,-2.049437,0.0,49.830532,24.044012,350.0,NaN,2.916,26.499998,0.0,10 / 11,218721,2020-03-11 10:43:09:180
4.850653,0.512359,2.015918,0.0,49.830532,24.044012,350.0,NaN,2.916,26.499998,0.0,10 / 11,219221,2020-03-11 10:43:09:680
12.488156,-4.951209,1.053449,0.0,49.830532,24.044012,350.0,NaN,2.916,26.499998,0.0,10 / 11,219720,2020-03-11 10:43:10:179
6.464345,0.737414,1.000776,0.0,49.830532,24.044012,350.0,NaN,2.916,26.499998,0.0,10 / 11,220221,2020-03-11 10:43:10:680
2.303222,-1.130063,1.197101,0.0,49.830532,24.044012,350.0,NaN,2.916,26.499998,0.0,10 / 11,220720,2020-03-11 10:43:11:179
5.204995,-3.1795,0.339977,0.0,49.830532,24.044012,350.0,NaN,2.916,26.499998,0.0,10 / 11,221220,2020-03-11 10:43:11:679
12.65575,-5.104438,2.044648,0.0,49.830532,24.044012,350.0,NaN,2.916,26.499998,0.0,10 / 11,221721,2020-03-11 10:43:12:180
0.905008,-4.448426,3.691859,0.0,49.830532,24.044012,350.0,NaN,2.916,26.499998,0.0,10 / 11,222221,2020-03-11 10:43:12:680
16.505627,-0.995988,3.112462,0.0,49.830532,24.044012,350.0,NaN,2.916,26.499998,0.0,10 / 11,222721,2020-03-11 10:43:13:180
12.928689,-6.799533,-0.991199,0.0,49.830532,24.044012,350.0,NaN,2.916,26.499998,0.0,10 / 11,223221,2020-03-11 10:43:13:680
16.357185,-0.732626,3.308787,0.0,49.830532,24.044012,350.0,NaN,2.916,26.499998,0.0,10 / 11,223721,2020-03-11 10:43:14:180
9.552865,-4.012682,1.221043,0.0,49.830532,24.044012,350.0,NaN,2.916,26.499998,0.0,10 / 11,224220,2020-03-11 10:43:14:679
5.956774,1.388637,2.044648,0.0,49.830532,24.044012,350.0,NaN,2.916,26.499998,0.0,10 / 11,224720,2020-03-11 10:43:15:179
3.007117,-1.058237,0.847547,0.0,49.830532,24.044012,350.0,NaN,2.916,26.499998,0.0,10 / 11,225220,2020-03-11 10:43:15:679
3.428497,-0.818817,0.043096,0.0,49.830532,24.044012,350.0,NaN,2.916,26.499998,0.0,10 / 11,225721,2020-03-11 10:43:16:180
4.788404,1.47004,3.256114,0.0,49.830532,24.044012,350.0,NaN,2.916,26.499998,0.0,10 / 11,226221,2020-03-11 10:43:16:680
10.424355,-1.029507,3.351883,0.0,49.830532,24.044012,350.0,NaN,2.916,26.499998,0.0,10 / 11,226721,2020-03-11 10:43:17:180
10.802638,-5.430049,-0.258574,0.0,49.830532,24.044012,350.0,NaN,2.916,26.499998,0.0,10 / 11,227221,2020-03-11 10:43:17:680
4.836288,-2.106897,0.770933,0.0,49.830532,24.044012,350.0,NaN,2.916,26.499998,0.0,10 / 11,227721,2020-03-11 10:43:18:180
11.33894,-6.253655,5.013459,0.0,49.830532,24.044012,350.0,NaN,2.916,26.499998,0.0,10 / 11,228221,2020-03-11 10:43:18:680
7.647081,-5.57849,4.620809,0.0,49.830532,24.044012,350.0,NaN,2.916,26.499998,0.0,10 / 11,228721,2020-03-11 10:43:19:180
13.757083,-1.077391,1.714248,0.0,49.830532,24.044012,350.0,NaN,2.916,26.499998,0.0,10 / 11,229220,2020-03-11 10:43:19:679
13.532028,-2.777274,-6.124367,0.0,49.830532,24.044012,350.0,NaN,2.916,26.499998,0.0,10 / 11,229721,2020-03-11 10:43:20:180
11.305421,0.981623,-0.579397,0.0,49.830532,24.044012,350.0,NaN,2.916,26.499998,0.0,10 / 11,230221,2020-03-11 10:43:20:680
6.291962,-2.762909,-0.201113,0.0,49.830532,24.044012,350.0,NaN,2.916,26.499998,0.0,10 / 11,230720,2020-03-11 10:43:21:179
4.055778,-0.383072,0.584185,0.0,49.830532,24.044012,350.0,NaN,2.916,26.499998,0.0,10 / 11,231220,2020-03-11 10:43:21:679
12.564771,-2.001553,-1.8579,0.0,49.830532,24.044012,350.0,NaN,2.916,26.499998,0.0,10 / 11,231721,2020-03-11 10:43:22:180
7.996634,-0.445322,2.461239,0.0,49.830532,24.044012,350.0,NaN,2.916,26.499998,0.0,10 / 11,232221,2020-03-11 10:43:22:680
5.305551,-0.062249,1.393425,0.0,49.830532,24.044012,350.0,NaN,2.916,26.499998,0.0,10 / 11,232721,2020-03-11 10:43:23:180
10.443508,-1.719037,4.328717,0.0,49.830532,24.044012,350.0,NaN,2.916,26.499998,0.0,10 / 11,233221,2020-03-11 10:43:23:680
10.888829,-5.21936,9.366117,0.0,49.830532,24.044012,350.0,NaN,2.916,26.499998,0.0,10 / 11,233721,2020-03-11 10:43:24:180
17.583017,-6.062118,6.181829,0.0,49.830532,24.044012,350.0,NaN,2.916,26.499998,0.0,10 / 11,234221,2020-03-11 10:43:24:680
12.660539,2.231396,1.029507,0.0,49.830532,24.044012,350.0,NaN,2.916,26.499998,0.0,10 / 11,234721,2020-03-11 10:43:25:180
7.216124,-1.900996,-0.287304,0.0,49.830532,24.044012,350.0,NaN,2.916,26.499998,0.0,10 / 11,235220,2020-03-11 10:43:25:679
13.326127,1.599327,0.881066,0.0,49.830532,24.044012,350.0,NaN,2.916,26.499998,0.0,10 / 11,235720,2020-03-11 10:43:26:179
12.799402,-1.608903,-1.733402,0.0,49.830532,24.044012,350.0,NaN,2.916,26.499998,0.0,10 / 11,236221,2020-03-11 10:43:26:680
3.366248,1.130063,0.905008,0.0,49.830532,24.044012,350.0,NaN,2.916,26.499998,0.0,10 / 11,236721,2020-03-11 10:43:27:180
4.544195,0.23942,1.546654,0.0,49.830532,24.044012,350.0,NaN,2.916,26.499998,0.0,10 / 11,237221,2020-03-11 10:43:27:680
8.959103,-2.269703,1.853112,0.0,49.830532,24.044012,350.0,NaN,2.916,26.499998,0.0,10 / 11,237721,2020-03-11 10:43:28:180
12.291832,-4.534618,0.435745,0.0,49.830532,24.044012,350.0,NaN,2.916,26.499998,0.0,10 / 11,238221,2020-03-11 10:43:28:680
4.831499,-2.54743,3.734955,0.0,49.830532,24.044012,350.0,NaN,2.916,26.499998,0.0,10 / 11,238720,2020-03-11 10:43:29:179
15.739482,-1.307234,0.914585,0.0,49.830532,24.044012,350.0,NaN,2.916,26.499998,0.0,10 / 11,239221,2020-03-11 10:43:29:680
5.214572,-2.432509,-0.387861,0.0,49.830532,24.044012,350.0,NaN,2.916,26.499998,0.0,10 / 11,239721,2020-03-11 10:43:30:180
15.370775,-0.229843,1.240197,0.0,49.830532,24.044012,350.0,NaN,2.916,26.499998,0.0,10 / 11,240221,2020-03-11 10:43:30:680
12.109872,-5.410896,2.221819,0.0,49.830532,24.044012,350.0,NaN,2.916,26.499998,0.0,10 / 11,240720,2020-03-11 10:43:31:179
6.943185,0.766145,1.130063,0.0,49.830532,24.044012,350.0,NaN,2.916,26.499998,0.0,10 / 11,241221,2020-03-11 10:43:31:680
3.241749,-0.957681,1.436521,0.0,49.830532,24.044012,350.0,NaN,2.916,26.499998,0.0,10 / 11,241721,2020-03-11 10:43:32:180
6.607997,-3.926491,-0.105345,0.0,49.830532,24.044012,350.0,NaN,2.916,26.499998,0.0,10 / 11,242220,2020-03-11 10:43:32:679
12.248735,-3.165135,2.815581,0.0,49.830532,24.044012,350.0,NaN,2.916,26.499998,0.0,10 / 11,242721,2020-03-11 10:43:33:180
6.253655,-3.883395,4.046201,0.0,49.830532,24.044012,350.0,NaN,2.916,26.499998,0.0,10 / 11,243220,2020-03-11 10:43:33:679
11.559206,0.229843,0.761356,0.0,49.830532,24.044012,350.0,NaN,2.916,26.499998,0.0,10 / 11,243720,2020-03-11 10:43:34:179
10.28549,1.905785,8.446744,0.0,49.830532,24.044012,350.0,NaN,2.916,26.499998,0.0,10 / 11,244220,2020-03-11 10:43:34:679
13.249513,1.37906,1.70946,0.0,49.830532,24.044012,350.0,NaN,2.916,26.499998,0.0,10 / 11,244720,2020-03-11 10:43:35:179
13.22557,1.355118,-4.127603,0.0,49.830532,24.044012,350.0,NaN,2.916,26.499998,0.0,10 / 11,245220,2020-03-11 10:43:35:679
7.776367,0.339977,0.440533,0.0,49.830532,24.044012,350.0,NaN,2.916,26.499998,0.0,10 / 11,245721,2020-03-11 10:43:36:180
5.075708,-1.345541,0.043096,0.0,49.830532,24.044012,350.0,NaN,2.916,26.499998,0.0,10 / 11,246221,2020-03-11 10:43:36:680
6.584055,-0.100556,-0.296881,0.0,49.830532,24.044012,350.0,NaN,2.916,26.499998,0.0,10 / 11,246721,2020-03-11 10:43:37:180
9.572019,1.604115,1.484405,0.0,49.830532,24.044012,350.0,NaN,2.916,26.499998,0.0,10 / 11,247221,2020-03-11 10:43:37:680
3.5099,2.025495,0.78051,0.0,49.830532,24.044012,350.0,NaN,2.916,26.499998,0.0,10 / 11,247721,2020-03-11 10:43:38:180
8.389283,1.58975,1.790863,0.0,49.830532,24.044012,350.0,NaN,2.916,26.499998,0.0,10 / 11,248221,2020-03-11 10:43:38:680
10.960655,-2.37026,10.424355,0.0,49.830532,24.044012,350.0,NaN,2.916,26.499998,0.0,10 / 11,248721,2020-03-11 10:43:39:180
9.337387,-5.319916,10.333375,0.0,49.830532,24.044012,350.0,NaN,2.916,26.499998,0.0,10 / 11,249220,2020-03-11 10:43:39:679
15.725117,-2.557007,3.524265,0.0,49.830532,24.044012,350.0,NaN,2.916,26.499998,0.0,10 / 11,249721,2020-03-11 10:43:40:180
12.47858,2.183512,1.211466,0.0,49.830532,24.044012,350.0,NaN,2.916,26.499998,0.0,10 / 11,250220,2020-03-11 10:43:40:679
8.868123,-1.321599,-0.622492,0.0,49.830532,24.044012,350.0,NaN,2.916,26.499998,0.0,10 / 11,250721,2020-03-11 10:43:41:180
4.76925,-0.134075,0.627281,0.0,49.830532,24.044012,350.0,NaN,2.916,26.499998,0.0,10 / 11,251221,2020-03-11 10:43:41:680
9.715671,-1.551443,-1.561019,0.0,49.830532,24.044012,350.0,NaN,2.916,26.499998,0.0,10 / 11,251720,2020-03-11 10:43:42:179
4.970363,0.320823,1.450886,0.0,49.830532,24.044012,350.0,NaN,2.916,26.499998,0.0,10 / 11,252220,2020-03-11 10:43:42:679
5.00867,-0.201113,2.427721,0.0,49.830532,24.044012,350.0,NaN,2.916,26.499998,0.0,10 / 11,252721,2020-03-11 10:43:43:180
9.543288,-1.249773,2.810793,0.0,49.830532,24.044012,350.0,NaN,2.916,26.499998,0.0,10 / 11,253220,2020-03-11 10:43:43:679
10.682928,-5.449203,6.186618,0.0,49.830532,24.044012,350.0,NaN,2.916,26.499998,0.0,10 / 11,253720,2020-03-11 10:43:44:179
13.393165,-7.76679,8.192958,0.0,49.830532,24.044012,350.0,NaN,2.916,26.499998,0.0,10 / 11,254220,2020-03-11 10:43:44:679
12.186486,2.111686,1.278504,0.0,49.830532,24.044012,350.0,NaN,2.916,26.499998,0.0,10 / 11,254720,2020-03-11 10:43:45:179
11.056423,-0.512359,-1.455675,0.0,49.830532,24.044012,350.0,NaN,2.916,26.499998,0.0,10 / 11,255220,2020-03-11 10:43:45:679
12.038046,1.886631,1.244985,0.0,49.830532,24.044012,350.0,NaN,2.916,26.499998,0.0,10 / 11,255720,2020-03-11 10:43:46:179
8.614338,-1.594538,-0.320823,0.0,49.830532,24.044012,350.0,NaN,2.916,26.499998,0.0,10 / 11,256220,2020-03-11 10:43:46:679
5.932832,0.004788,2.111686,0.0,49.830532,24.044012,350.0,NaN,2.916,26.499998,0.0,10 / 11,256721,2020-03-11 10:43:47:180
5.688624,0.804452,2.973599,0.0,49.830532,24.044012,350.0,NaN,2.916,26.499998,0.0,10 / 11,257221,2020-03-11 10:43:47:680
10.199299,-1.728614,4.553772,0.0,49.830532,24.044012,350.0,NaN,2.916,26.499998,0.0,10 / 11,257720,2020-03-11 10:43:48:179
9.011775,-5.913678,1.086968,0.0,49.830532,24.044012,350.0,NaN,2.916,26.499998,0.0,10 / 11,258220,2020-03-11 10:43:48:679
3.734955,-2.657564,5.075708,0.0,49.830532,24.044012,350.0,NaN,2.916,26.499998,0.0,10 / 11,258721,2020-03-11 10:43:49:180
15.816096,-0.804452,1.484405,0.0,49.830532,24.044012,350.0,NaN,2.916,26.499998,0.0,10 / 11,259221,2020-03-11 10:43:49:680
7.393295,-3.634398,4.41012,0.0,49.830532,24.044012,350.0,NaN,2.916,26.499998,0.0,10 / 11,259720,2020-03-11 10:43:50:179
14.523228,-0.56982,2.044648,0.0,49.830532,24.044012,350.0,NaN,2.916,26.499998,0.0,10 / 11,260220,2020-03-11 10:43:50:679
12.253524,-5.774814,-0.411803,0.0,49.830532,24.044012,350.0,NaN,2.916,26.499998,0.0,10 / 11,260721,2020-03-11 10:43:51:180
8.001422,0.986411,0.3304,0.0,49.830532,24.044012,350.0,NaN,2.916,26.499998,0.0,10 / 11,261221,2020-03-11 10:43:51:680
3.485958,-1.288081,1.302446,0.0,49.830532,24.044012,350.0,NaN,2.916,26.499998,0.0,10 / 11,261720,2020-03-11 10:43:52:179
4.994305,-0.545878,-1.25935,0.0,49.830532,24.044012,350.0,NaN,2.916,26.499998,0.0,10 / 11,262221,2020-03-11 10:43:52:680
5.688624,1.881843,3.433285,0.0,49.830532,24.044012,350.0,NaN,2.916,26.499998,0.0,10 / 11,262720,2020-03-11 10:43:53:179
10.994174,-1.527501,4.424485,0.0,49.830532,24.044012,350.0,NaN,2.916,26.499998,0.0,10 / 11,263220,2020-03-11 10:43:53:679
5.822699,1.072602,2.815581,0.0,49.830532,24.044012,350.0,NaN,2.916,26.499998,0.0,10 / 11,263720,2020-03-11 10:43:54:179
11.027693,-1.819593,7.656657,0.0,49.830532,24.044012,350.0,NaN,2.916,26.499998,0.0,10 / 11,264220,2020-03-11 10:43:54:679
9.605537,-3.998317,5.951986,0.0,49.830532,24.044012,350.0,NaN,2.916,26.499998,0.0,10 / 11,264720,2020-03-11 10:43:55:179
16.46732,-1.000776,-0.727837,0.0,49.830532,24.044012,350.0,NaN,2.916,26.499998,0.0,10 / 11,265220,2020-03-11 10:43:55:679
11.520899,1.810017,1.479617,0.0,49.830532,24.044012,350.0,NaN,2.916,26.499998,0.0,10 / 11,265721,2020-03-11 10:43:56:180
7.268797,-2.202665,-1.321599,0.0,49.830532,24.044012,350.0,NaN,2.916,26.499998,0.0,10 / 11,266221,2020-03-11 10:43:56:680
4.970363,-0.320823,1.388637,0.0,49.830532,24.044012,350.0,NaN,2.916,26.499998,0.0,10 / 11,266721,2020-03-11 10:43:57:180
3.5099,-0.828394,2.949657,0.0,49.830532,24.044012,350.0,NaN,2.916,26.499998,0.0,10 / 11,267221,2020-03-11 10:43:57:680
6.26802,0.105345,0.656011,0.0,49.830532,24.044012,350.0,NaN,2.916,26.499998,0.0,10 / 11,267720,2020-03-11 10:43:58:179
3.356671,-0.703895,2.240973,0.0,49.830532,24.044012,350.0,NaN,2.916,26.499998,0.0,10 / 11,268221,2020-03-11 10:43:58:680
8.212112,-2.054225,1.44131,0.0,49.830532,24.044012,350.0,NaN,2.916,26.499998,0.0,0 / 0,268720,2020-03-11 10:43:59:179
9.969456,-6.603208,1.345541,0.0,49.830532,24.044012,350.0,NaN,2.916,26.499998,0.0,0 / 0,269221,2020-03-11 10:43:59:680
9.730036,-4.041412,1.436521,0.0,49.830532,24.044012,350.0,NaN,2.916,26.499998,0.0,0 / 5,269720,2020-03-11 10:44:00:179
13.057976,0.823605,0.861913,0.0,49.830532,24.044012,350.0,NaN,2.916,26.499998,0.0,0 / 5,270220,2020-03-11 10:44:00:679
12.349293,-4.276044,1.666364,0.0,49.830532,24.044012,350.0,NaN,2.916,26.499998,0.0,0 / 8,270720,2020-03-11 10:44:01:179
7.264008,0.895431,1.671153,0.0,49.830532,24.044012,350.0,NaN,2.916,26.499998,0.0,0 / 8,271221,2020-03-11 10:44:01:680
4.548983,-1.517924,0.938527,0.0,49.830532,24.044012,350.0,NaN,2.916,26.499998,0.0,0 / 9,271721,2020-03-11 10:44:02:180
7.244855,0.411803,0.828394,0.0,49.830532,24.044012,350.0,NaN,2.916,26.499998,0.0,0 / 9,272221,2020-03-11 10:44:02:680
3.514688,-0.636858,1.177947,0.0,49.830532,24.044012,350.0,NaN,2.916,26.499998,0.0,0 / 16,272720,2020-03-11 10:44:03:179
4.098873,-1.699883,-0.871489,0.0,49.830532,24.044012,350.0,NaN,2.916,26.499998,0.0,0 / 16,273221,2020-03-11 10:44:03:680
8.614338,1.628057,-0.497994,0.0,49.829826,24.044394,348.0,NaN,2.484,21.500002,341.5,12 / 19,273721,2020-03-11 10:44:04:180
9.955091,-1.120486,10.089166,0.0,49.829826,24.044394,348.0,NaN,2.484,21.500002,341.5,12 / 19,274220,2020-03-11 10:44:04:679
9.720459,-3.715801,9.662998,0.0,49.829826,24.044394,348.0,NaN,2.484,21.500002,341.5,12 / 19,274721,2020-03-11 10:44:05:180
14.882358,-2.600103,1.063026,0.0,49.829826,24.044394,348.0,NaN,2.484,21.500002,341.5,12 / 19,275220,2020-03-11 10:44:05:679
11.913548,0.143652,-0.268151,0.0,49.829826,24.044394,348.0,NaN,2.484,21.500002,341.5,12 / 19,275720,2020-03-11 10:44:06:179
12.339716,-1.331176,-0.684742,0.0,49.829826,24.044394,348.0,NaN,2.484,21.500002,341.5,12 / 19,276221,2020-03-11 10:44:06:680
10.314221,-0.383072,-0.799663,0.0,49.829826,24.044394,348.0,NaN,2.484,21.500002,341.5,12 / 19,276720,2020-03-11 10:44:07:179
4.553772,-2.169147,0.205901,0.0,49.829826,24.044394,348.0,NaN,2.484,21.500002,341.5,12 / 19,277220,2020-03-11 10:44:07:679
5.329493,0.430956,1.158794,0.0,49.829826,24.044394,348.0,NaN,2.484,21.500002,341.5,12 / 19,277721,2020-03-11 10:44:08:180
8.829816,2.030283,1.264139,0.0,49.829826,24.044394,348.0,NaN,2.484,21.500002,341.5,12 / 19,278221,2020-03-11 10:44:08:680
13.22557,0.737414,5.372589,0.0,49.829826,24.044394,348.0,NaN,2.484,21.500002,341.5,12 / 19,278720,2020-03-11 10:44:09:179
12.526464,1.130063,6.042965,0.0,49.829826,24.044394,348.0,NaN,2.484,21.500002,341.5,12 / 19,279221,2020-03-11 10:44:09:680
15.17445,0.90022,-0.68953,0.0,49.829826,24.044394,348.0,NaN,2.484,21.500002,341.5,12 / 19,279720,2020-03-11 10:44:10:179
10.041282,-6.962338,6.655881,0.0,49.829826,24.044394,348.0,NaN,2.484,21.500002,341.5,12 / 19,280220,2020-03-11 10:44:10:679
17.118542,-1.388637,1.891419,0.0,49.829826,24.044394,348.0,NaN,2.484,21.500002,341.5,12 / 19,280720,2020-03-11 10:44:11:179
11.745954,3.529053,1.838747,0.0,49.829826,24.044394,348.0,NaN,2.484,21.500002,341.5,12 / 19,281221,2020-03-11 10:44:11:680
8.001422,-2.346318,-1.144428,0.0,49.829826,24.044394,348.0,NaN,2.484,21.500002,341.5,12 / 19,281721,2020-03-11 10:44:12:180
5.051766,-0.914585,1.312023,0.0,49.829826,24.044394,348.0,NaN,2.484,21.500002,341.5,12 / 19,282220,2020-03-11 10:44:12:679
4.936844,-0.454898,1.685518,0.0,49.829826,24.044394,348.0,NaN,2.484,21.500002,341.5,12 / 19,282720,2020-03-11 10:44:13:179
8.312668,-3.557784,-0.172383,0.0,49.829826,24.044394,348.0,NaN,2.484,21.500002,341.5,12 / 19,283220,2020-03-11 10:44:13:679
14.714764,-2.60968,2.13084,0.0,49.829826,24.044394,348.0,NaN,2.484,21.500002,341.5,12 / 19,283720,2020-03-11 10:44:14:179
6.861782,-4.55856,-1.436521,0.0,49.829826,24.044394,348.0,NaN,2.484,21.500002,341.5,12 / 19,284220,2020-03-11 10:44:14:679
12.057199,-4.343082,1.355118,0.0,49.829826,24.044394,348.0,NaN,2.484,21.500002,341.5,12 / 19,284720,2020-03-11 10:44:15:179
9.160215,-0.842759,5.731719,0.0,49.829826,24.044394,348.0,NaN,2.484,21.500002,341.5,12 / 19,285221,2020-03-11 10:44:15:680
7.541735,-1.628057,4.831499,0.0,49.829826,24.044394,348.0,NaN,2.484,21.500002,341.5,12 / 19,285721,2020-03-11 10:44:16:180
11.429919,-4.553771,1.584962,0.0,49.829826,24.044394,348.0,NaN,2.484,21.500002,341.5,12 / 19,286221,2020-03-11 10:44:16:680
8.212112,0.191536,1.125275,0.0,49.829826,24.044394,348.0,NaN,2.484,21.500002,341.5,12 / 19,286720,2020-03-11 10:44:17:179
2.695871,-0.804452,2.164359,0.0,49.829826,24.044394,348.0,NaN,2.484,21.500002,341.5,12 / 19,287220,2020-03-11 10:44:17:679
7.25922,-2.633622,1.11091,0.0,49.829826,24.044394,348.0,NaN,2.484,21.500002,341.5,12 / 19,287721,2020-03-11 10:44:18:180
2.571373,-0.952892,1.987187,0.0,49.829826,24.044394,348.0,NaN,2.484,21.500002,341.5,12 / 19,288221,2020-03-11 10:44:18:680
5.276821,-3.835511,0.852336,0.0,49.829826,24.044394,348.0,NaN,2.484,21.500002,341.5,12 / 19,288721,2020-03-11 10:44:19:180
12.061988,-0.593762,-0.263362,0.0,49.829826,24.044394,348.0,NaN,2.484,21.500002,341.5,12 / 19,289220,2020-03-11 10:44:19:679
7.867347,-2.762909,6.090849,0.0,49.829826,24.044394,348.0,NaN,2.484,21.500002,341.5,12 / 19,289721,2020-03-11 10:44:20:180
15.98369,-0.746991,2.499547,0.0,49.829826,24.044394,348.0,NaN,2.484,21.500002,341.5,12 / 19,290221,2020-03-11 10:44:20:680
12.62702,-2.432509,0.746991,0.0,49.829826,24.044394,348.0,NaN,2.484,21.500002,341.5,12 / 19,290720,2020-03-11 10:44:21:179
6.627151,-0.474052,0.459687,0.0,49.829826,24.044394,348.0,NaN,2.484,21.500002,341.5,12 / 19,291220,2020-03-11 10:44:21:679
4.357447,0.483629,3.275268,0.0,49.829826,24.044394,348.0,NaN,2.484,21.500002,341.5,12 / 19,291720,2020-03-11 10:44:22:179
6.698977,-0.847547,0.727837,0.0,49.829826,24.044394,348.0,NaN,2.484,21.500002,341.5,12 / 19,292220,2020-03-11 10:44:22:679
4.343082,0.081403,1.647211,0.0,49.829826,24.044394,348.0,NaN,2.484,21.500002,341.5,12 / 19,292721,2020-03-11 10:44:23:180
9.916783,-2.178723,1.742979,0.0,49.829826,24.044394,348.0,NaN,2.484,21.500002,341.5,12 / 19,293221,2020-03-11 10:44:23:680
14.221559,-3.05979,2.1883,0.0,49.829826,24.044394,348.0,NaN,2.484,21.500002,341.5,12 / 19,293721,2020-03-11 10:44:24:180
9.121908,2.092532,3.74932,0.0,49.829826,24.044394,348.0,NaN,2.484,21.500002,341.5,12 / 19,294220,2020-03-11 10:44:24:679
16.4338,-7.445967,11.089942,0.0,49.829826,24.044394,348.0,NaN,2.484,21.500002,341.5,12 / 19,294720,2020-03-11 10:44:25:179
10.572795,-3.323152,0.009577,0.0,49.829826,24.044394,348.0,NaN,2.484,21.500002,341.5,12 / 19,295220,2020-03-11 10:44:25:679
12.143391,0.205901,-0.397437,0.0,49.829826,24.044394,348.0,NaN,2.484,21.500002,341.5,12 / 19,295720,2020-03-11 10:44:26:179
2.331953,-5.506664,5.406108,0.0,49.829826,24.044394,348.0,NaN,2.484,21.500002,341.5,12 / 19,296221,2020-03-11 10:44:26:680
6.066907,-0.742202,6.402096,0.0,49.829826,24.044394,348.0,NaN,2.484,21.500002,341.5,12 / 19,296721,2020-03-11 10:44:27:180
14.580688,-3.476381,0.100556,0.0,49.829826,24.044394,348.0,NaN,2.484,21.500002,341.5,12 / 19,297220,2020-03-11 10:44:27:679
8.212112,0.316035,-0.296881,0.0,49.829826,24.044394,348.0,NaN,2.484,21.500002,341.5,12 / 19,297721,2020-03-11 10:44:28:180
3.078944,-0.756568,1.695095,0.0,49.829826,24.044394,348.0,NaN,2.484,21.500002,341.5,12 / 19,298221,2020-03-11 10:44:28:680
4.797981,-3.160346,-0.871489,0.0,49.829826,24.044394,348.0,NaN,2.484,21.500002,341.5,12 / 19,298721,2020-03-11 10:44:29:180
9.710882,0.665588,-1.790863,0.0,49.829826,24.044394,348.0,NaN,2.484,21.500002,341.5,12 / 19,299221,2020-03-11 10:44:29:680
6.962339,-0.751779,9.093178,0.0,49.829826,24.044394,348.0,NaN,2.484,21.500002,341.5,12 / 19,299720,2020-03-11 10:44:30:179
9.768343,1.723825,-0.435745,0.0,49.829826,24.044394,348.0,NaN,2.484,21.500002,341.5,12 / 19,300220,2020-03-11 10:44:30:679
10.577583,-1.086968,3.586514,0.0,49.829826,24.044394,348.0,NaN,2.484,21.500002,341.5,12 / 19,300720,2020-03-11 10:44:31:179
11.305421,-0.35913,0.890643,0.0,49.829826,24.044394,348.0,NaN,2.484,21.500002,341.5,12 / 19,301220,2020-03-11 10:44:31:679
13.905523,-0.555455,-4.955997,0.0,49.829826,24.044394,348.0,NaN,2.484,21.500002,341.5,12 / 19,301721,2020-03-11 10:44:32:180
9.715671,1.120486,-0.641646,0.0,49.829826,24.044394,348.0,NaN,2.484,21.500002,341.5,12 / 19,302221,2020-03-11 10:44:32:680
5.798757,-1.565808,0.842759,0.0,49.829826,24.044394,348.0,NaN,2.484,21.500002,341.5,12 / 19,302721,2020-03-11 10:44:33:180
5.746084,-1.206678,-1.541866,0.0,49.829826,24.044394,348.0,NaN,2.484,21.500002,341.5,12 / 19,303221,2020-03-11 10:44:33:680
9.519346,1.934515,-0.138864,0.0,49.829826,24.044394,348.0,NaN,2.484,21.500002,341.5,12 / 19,303721,2020-03-11 10:44:34:180
4.343082,-1.11091,0.114922,0.0,49.829826,24.044394,348.0,NaN,2.484,21.500002,341.5,12 / 19,304220,2020-03-11 10:44:34:679
4.759673,0.363919,3.074155,0.0,49.829826,24.044394,348.0,NaN,2.484,21.500002,341.5,12 / 19,304720,2020-03-11 10:44:35:179
8.197747,-2.375048,0.335188,0.0,49.829826,24.044394,348.0,NaN,2.484,21.500002,341.5,12 / 19,305220,2020-03-11 10:44:35:679
10.79785,-6.943185,3.979163,0.0,49.829826,24.044394,348.0,NaN,2.484,21.500002,341.5,12 / 19,305721,2020-03-11 10:44:36:180
4.390966,-5.133168,2.585738,0.0,49.829826,24.044394,348.0,NaN,2.484,21.500002,341.5,12 / 19,306221,2020-03-11 10:44:36:680
16.175226,-1.125275,0.191536,0.0,49.829826,24.044394,348.0,NaN,2.484,21.500002,341.5,12 / 19,306721,2020-03-11 10:44:37:180
12.50731,-2.882619,-0.138864,0.0,49.829826,24.044394,348.0,NaN,2.484,21.500002,341.5,12 / 19,307220,2020-03-11 10:44:37:679
6.416461,0.335188,1.426944,0.0,49.829826,24.044394,348.0,NaN,2.484,21.500002,341.5,12 / 19,307721,2020-03-11 10:44:38:180
11.621455,-4.692635,2.288857,0.0,49.829826,24.044394,348.0,NaN,2.484,21.500002,341.5,12 / 19,308221,2020-03-11 10:44:38:680
6.655881,0.799663,1.474828,0.0,49.829826,24.044394,348.0,NaN,2.484,21.500002,341.5,12 / 19,308720,2020-03-11 10:44:39:179
4.132392,-0.833182,1.594538,0.0,49.829826,24.044394,348.0,NaN,2.484,21.500002,341.5,12 / 19,309221,2020-03-11 10:44:39:680
5.755661,-3.787627,0.162806,0.0,49.829826,24.044394,348.0,NaN,2.484,21.500002,341.5,12 / 19,309721,2020-03-11 10:44:40:180
11.530476,-2.935291,0.229843,0.0,49.829826,24.044394,348.0,NaN,2.484,21.500002,341.5,12 / 19,310220,2020-03-11 10:44:40:679
7.354988,-2.643199,1.987187,0.0,49.829826,24.044394,348.0,NaN,2.484,21.500002,341.5,12 / 19,310720,2020-03-11 10:44:41:179
15.495274,-1.216254,2.226608,0.0,49.829826,24.044394,348.0,NaN,2.484,21.500002,341.5,12 / 19,311220,2020-03-11 10:44:41:679
13.565547,-0.80924,-3.035848,0.0,49.829826,24.044394,348.0,NaN,2.484,21.500002,341.5,12 / 19,311720,2020-03-11 10:44:42:179
11.061212,-2.537854,1.412579,0.0,49.829826,24.044394,348.0,NaN,2.484,21.500002,341.5,12 / 19,312220,2020-03-11 10:44:42:679
13.996503,1.134852,-5.319916,0.0,49.829826,24.044394,348.0,NaN,2.484,21.500002,341.5,12 / 19,312721,2020-03-11 10:44:43:180
10.486604,1.177947,-1.541866,0.0,49.829826,24.044394,348.0,NaN,2.484,21.500002,341.5,12 / 19,313221,2020-03-11 10:44:43:680
4.965575,-2.293645,0.095768,0.0,49.829826,24.044394,348.0,NaN,2.484,21.500002,341.5,12 / 19,313720,2020-03-11 10:44:44:179
5.157111,-0.057461,-0.272939,0.0,49.829826,24.044394,348.0,NaN,2.484,21.500002,341.5,12 / 19,314220,2020-03-11 10:44:44:679
5.535394,0.895431,2.705448,0.0,49.829826,24.044394,348.0,NaN,2.484,21.500002,341.5,12 / 19,314720,2020-03-11 10:44:45:179
13.057976,-1.939303,5.798757,0.0,49.829826,24.044394,348.0,NaN,2.484,21.500002,341.5,12 / 19,315220,2020-03-11 10:44:45:679
14.987702,-7.149086,7.354988,0.0,49.829826,24.044394,348.0,NaN,2.484,21.500002,341.5,12 / 19,315721,2020-03-11 10:44:46:180
9.323022,-0.914585,2.949657,0.0,49.829826,24.044394,348.0,NaN,2.484,21.500002,341.5,12 / 19,316221,2020-03-11 10:44:46:680
12.071565,-5.755661,11.535264,0.0,49.829826,24.044394,348.0,NaN,2.484,21.500002,341.5,12 / 19,316721,2020-03-11 10:44:47:180
15.80652,-7.082048,6.545748,0.0,49.829826,24.044394,348.0,NaN,2.484,21.500002,341.5,12 / 19,317221,2020-03-11 10:44:47:680
13.627796,1.403002,0.943315,0.0,49.829826,24.044394,348.0,NaN,2.484,21.500002,341.5,12 / 19,317721,2020-03-11 10:44:48:180
13.364434,-2.298433,-1.843535,0.0,49.829826,24.044394,348.0,NaN,2.484,21.500002,341.5,12 / 19,318220,2020-03-11 10:44:48:679
6.536171,0.632069,1.944092,0.0,49.829826,24.044394,348.0,NaN,2.484,21.500002,341.5,12 / 19,318720,2020-03-11 10:44:49:179
2.724602,-2.341529,1.288081,0.0,49.829826,24.044394,348.0,NaN,2.484,21.500002,341.5,12 / 19,319220,2020-03-11 10:44:49:679
4.390966,-1.264138,-0.167594,0.0,49.829826,24.044394,348.0,NaN,2.484,21.500002,341.5,12 / 19,319721,2020-03-11 10:44:50:180
3.385401,-1.058237,1.383849,0.0,49.829826,24.044394,348.0,NaN,2.484,21.500002,341.5,12 / 19,320221,2020-03-11 10:44:50:680
7.043741,-3.347094,1.034295,0.0,49.829826,24.044394,348.0,NaN,2.484,21.500002,341.5,12 / 19,320721,2020-03-11 10:44:51:180
10.644621,-5.568913,-0.972046,0.0,49.829826,24.044394,348.0,NaN,2.484,21.500002,341.5,12 / 19,321220,2020-03-11 10:44:51:679
5.861006,-5.856217,4.328717,0.0,49.829826,24.044394,348.0,NaN,2.484,21.500002,341.5,12 / 19,321721,2020-03-11 10:44:52:180
14.480132,-1.575385,0.933739,0.0,49.829826,24.044394,348.0,NaN,2.484,21.500002,341.5,12 / 19,322221,2020-03-11 10:44:52:680
12.449849,-5.861006,1.604115,0.0,49.829826,24.044394,348.0,NaN,2.484,21.500002,341.5,12 / 19,322720,2020-03-11 10:44:53:179
7.292739,0.68953,0.723049,0.0,49.829826,24.044394,348.0,NaN,2.484,21.500002,341.5,12 / 19,323220,2020-03-11 10:44:53:679
2.772486,-1.417367,1.503559,0.0,49.829826,24.044394,348.0,NaN,2.484,21.500002,341.5,12 / 19,323721,2020-03-11 10:44:54:180
7.733272,0.148441,2.284068,0.0,49.829826,24.044394,348.0,NaN,2.484,21.500002,341.5,12 / 19,324221,2020-03-11 10:44:54:680
2.671929,-1.388637,1.580173,0.0,49.829826,24.044394,348.0,NaN,2.484,21.500002,341.5,12 / 19,324721,2020-03-11 10:44:55:180
6.694188,-3.600879,0.253785,0.0,49.829826,24.044394,348.0,NaN,2.484,21.500002,341.5,12 / 19,325220,2020-03-11 10:44:55:679
11.520899,-6.129156,0.196325,0.0,49.829826,24.044394,348.0,NaN,2.484,21.500002,341.5,12 / 19,325721,2020-03-11 10:44:56:180
4.189853,-6.124367,4.687847,0.0,49.829826,24.044394,348.0,NaN,2.484,21.500002,341.5,12 / 19,326221,2020-03-11 10:44:56:680
13.172897,0.263362,0.354342,0.0,49.829826,24.044394,348.0,NaN,2.484,21.500002,341.5,12 / 19,326721,2020-03-11 10:44:57:180
14.030022,-3.835511,-0.962469,0.0,49.829826,24.044394,348.0,NaN,2.484,21.500002,341.5,12 / 19,327220,2020-03-11 10:44:57:679
7.019799,0.311246,1.307234,0.0,49.829826,24.044394,348.0,NaN,2.484,21.500002,341.5,12 / 19,327720,2020-03-11 10:44:58:179
12.306197,-6.028599,1.929727,0.0,49.829826,24.044394,348.0,NaN,2.484,21.500002,341.5,12 / 19,328220,2020-03-11 10:44:58:679
6.651093,0.368707,0.775721,0.0,49.829826,24.044394,348.0,NaN,2.484,21.500002,341.5,12 / 19,328721,2020-03-11 10:44:59:180
4.242526,-1.517924,1.345541,0.0,49.829826,24.044394,348.0,NaN,2.484,21.500002,341.5,12 / 19,329221,2020-03-11 10:44:59:680
8.690952,-3.567361,0.445322,0.0,49.829826,24.044394,348.0,NaN,2.484,21.500002,341.5,12 / 19,329720,2020-03-11 10:45:00:179
11.496957,-6.354211,1.575385,0.0,49.829826,24.044394,348.0,NaN,2.484,21.500002,341.5,12 / 19,330220,2020-03-11 10:45:00:679
2.264915,-3.677494,3.873819,0.0,49.829826,24.044394,348.0,NaN,2.484,21.500002,341.5,12 / 19,330721,2020-03-11 10:45:01:180
15.035586,-1.604115,2.260126,0.0,49.829826,24.044394,348.0,NaN,2.484,21.500002,341.5,12 / 19,331220,2020-03-11 10:45:01:679
12.694057,-5.592855,-0.78051,0.0,49.829826,24.044394,348.0,NaN,2.484,21.500002,341.5,12 / 19,331720,2020-03-11 10:45:02:179
15.140931,-0.316035,2.236184,0.0,49.829826,24.044394,348.0,NaN,2.484,21.500002,341.5,12 / 19,332220,2020-03-11 10:45:02:679
12.277467,-3.002329,-0.35913,0.0,49.829826,24.044394,348.0,NaN,2.484,21.500002,341.5,12 / 19,332720,2020-03-11 10:45:03:179
7.07726,0.636858,1.043872,0.0,49.829826,24.044394,348.0,NaN,2.484,21.500002,341.5,12 / 19,333221,2020-03-11 10:45:03:680
2.236184,-1.163582,1.177947,0.0,49.829826,24.044394,348.0,NaN,2.484,21.500002,341.5,12 / 19,333721,2020-03-11 10:45:04:180
5.267244,-3.754108,-0.708684,0.0,49.829826,24.044394,348.0,NaN,2.484,21.500002,341.5,12 / 19,334223,2020-03-11 10:45:04:682
10.084377,0.550666,-2.145205,0.0,49.829826,24.044394,348.0,NaN,2.484,21.500002,341.5,12 / 19,334721,2020-03-11 10:45:05:180
9.725247,-1.786074,7.13951,0.0,49.829826,24.044394,348.0,NaN,2.484,21.500002,341.5,12 / 19,335221,2020-03-11 10:45:05:680
16.572664,1.790863,4.893749,0.0,49.829826,24.044394,348.0,NaN,2.484,21.500002,341.5,12 / 19,335720,2020-03-11 10:45:06:179
12.325351,-7.422025,9.26556,0.0,49.829826,24.044394,348.0,NaN,2.484,21.500002,341.5,12 / 19,336221,2020-03-11 10:45:06:680
12.732365,3.122039,0.90022,0.0,49.829826,24.044394,348.0,NaN,2.484,21.500002,341.5,12 / 19,336720,2020-03-11 10:45:07:179
13.383588,-5.272032,-0.201113,0.0,49.829826,24.044394,348.0,NaN,2.484,21.500002,341.5,12 / 19,337221,2020-03-11 10:45:07:680
6.47871,1.651999,0.138864,0.0,49.829826,24.044394,348.0,NaN,2.484,21.500002,341.5,12 / 19,337721,2020-03-11 10:45:08:180
3.093309,-1.268927,1.877054,0.0,49.829826,24.044394,348.0,NaN,2.484,21.500002,341.5,0 / 0,338221,2020-03-11 10:45:08:680
5.521029,-4.089296,0.646435,0.0,49.829826,24.044394,348.0,NaN,2.484,21.500002,341.5,0 / 0,338721,2020-03-11 10:45:09:180
10.371682,-0.737414,0.952892,0.0,49.829826,24.044394,348.0,NaN,2.484,21.500002,341.5,0 / 2,339220,2020-03-11 10:45:09:679
9.481039,-2.06859,4.419697,0.0,49.829826,24.044394,348.0,NaN,2.484,21.500002,341.5,0 / 2,339720,2020-03-11 10:45:10:179
11.109096,-2.475604,0.234632,0.0,49.829826,24.044394,348.0,NaN,2.484,21.500002,341.5,0 / 3,340221,2020-03-11 10:45:10:680
6.512229,-3.500323,3.921703,0.0,49.829826,24.044394,348.0,NaN,2.484,21.500002,341.5,0 / 3,340720,2020-03-11 10:45:11:179
15.911864,0.057461,1.47004,0.0,49.829826,24.044394,348.0,NaN,2.484,21.500002,341.5,0 / 8,341221,2020-03-11 10:45:11:680
14.882358,-2.236184,-3.241749,0.0,49.829826,24.044394,348.0,NaN,2.484,21.500002,341.5,0 / 8,341721,2020-03-11 10:45:12:180
10.936713,0.909797,-1.393425,0.0,49.83208,24.041529,339.0,NaN,2.232,26.0,0.0,12 / 12,342220,2020-03-11 10:45:12:679
5.492299,-1.647211,0.205901,0.0,49.83208,24.041529,339.0,NaN,2.232,26.0,0.0,12 / 12,342721,2020-03-11 10:45:13:180
4.256891,-1.216254,-1.594538,0.0,49.83208,24.041529,339.0,NaN,2.232,26.0,0.0,12 / 12,343221,2020-03-11 10:45:13:680
6.607997,0.90022,1.757344,0.0,49.83208,24.041529,339.0,NaN,2.232,26.0,0.0,12 / 12,343720,2020-03-11 10:45:14:179
10.70687,-1.991976,9.720459,0.0,49.83208,24.041529,339.0,NaN,2.232,26.0,0.0,12 / 12,344220,2020-03-11 10:45:14:679
6.21056,0.699107,2.509123,0.0,49.83208,24.041529,339.0,NaN,2.232,26.0,0.0,12 / 12,344720,2020-03-11 10:45:15:179
11.382035,-2.260126,5.990293,0.0,49.83208,24.041529,339.0,NaN,2.232,26.0,0.0,12 / 12,345221,2020-03-11 10:45:15:680
10.002975,-5.779603,10.884041,0.0,49.83208,24.041529,339.0,NaN,2.232,26.0,0.0,12 / 12,345721,2020-03-11 10:45:16:180
16.19438,-3.256114,1.838747,0.0,49.83208,24.041529,339.0,NaN,2.232,26.0,0.0,12 / 12,346220,2020-03-11 10:45:16:679
12.038046,1.043872,-0.052672,0.0,49.83208,24.041529,339.0,NaN,2.232,26.0,0.0,12 / 12,346720,2020-03-11 10:45:17:179
8.657434,-2.30801,-0.502782,0.0,49.83208,24.041529,339.0,NaN,2.232,26.0,0.0,12 / 12,347221,2020-03-11 10:45:17:680
5.214572,-1.771709,0.833182,0.0,49.83208,24.041529,339.0,NaN,2.232,26.0,0.0,12 / 12,347721,2020-03-11 10:45:18:180
4.496311,-0.172383,2.557007,0.0,49.83208,24.041529,339.0,NaN,2.232,26.0,0.0,12 / 12,348221,2020-03-11 10:45:18:680
5.497087,-0.287304,1.134852,0.0,49.83208,24.041529,339.0,NaN,2.232,26.0,0.0,12 / 12,348720,2020-03-11 10:45:19:179
6.359,0.277727,1.833959,0.0,49.83208,24.041529,339.0,NaN,2.232,26.0,0.0,12 / 12,349221,2020-03-11 10:45:19:680
11.530476,-1.484405,4.726155,0.0,49.83208,24.041529,339.0,NaN,2.232,26.0,0.0,12 / 12,349720,2020-03-11 10:45:20:179
11.204864,-6.368576,9.136273,0.0,49.83208,24.041529,339.0,NaN,2.232,26.0,0.0,12 / 12,350220,2020-03-11 10:45:20:679
14.805743,-6.004657,6.770803,0.0,49.83208,24.041529,339.0,NaN,2.232,26.0,0.0,12 / 12,350721,2020-03-11 10:45:21:180
12.679692,1.704672,1.599327,0.0,49.83208,24.041529,339.0,NaN,2.232,26.0,0.0,12 / 12,351221,2020-03-11 10:45:21:680
7.872135,-1.383848,-0.837971,0.0,49.83208,24.041529,339.0,NaN,2.232,26.0,0.0,12 / 12,351721,2020-03-11 10:45:22:180
4.845865,-0.234632,0.933739,0.0,49.83208,24.041529,339.0,NaN,2.232,26.0,0.0,12 / 12,352220,2020-03-11 10:45:22:679
9.021352,-0.943315,-2.475604,0.0,49.83208,24.041529,339.0,NaN,2.232,26.0,0.0,12 / 12,352721,2020-03-11 10:45:23:180
5.832276,-0.148441,0.464475,0.0,49.83208,24.041529,339.0,NaN,2.232,26.0,0.0,12 / 12,353221,2020-03-11 10:45:23:680
6.354212,0.316035,3.514688,0.0,49.83208,24.041529,339.0,NaN,2.232,26.0,0.0,12 / 12,353720,2020-03-11 10:45:24:179
13.22557,-3.241749,9.160215,0.0,49.83208,24.041529,339.0,NaN,2.232,26.0,0.0,12 / 12,354220,2020-03-11 10:45:24:679
14.887146,-2.964022,12.732365,0.0,49.83208,24.041529,339.0,NaN,2.232,26.0,0.0,12 / 12,354720,2020-03-11 10:45:25:179
18.6221,-7.134721,6.976704,0.0,49.83208,24.041529,339.0,NaN,2.232,26.0,0.0,12 / 12,355221,2020-03-11 10:45:25:680
16.237476,-1.024718,2.37026,0.0,49.83208,24.041529,339.0,NaN,2.232,26.0,0.0,12 / 12,355720,2020-03-11 10:45:26:179
14.78659,-3.098097,0.177171,0.0,49.83208,24.041529,339.0,NaN,2.232,26.0,0.0,12 / 12,356221,2020-03-11 10:45:26:680
12.349293,-3.591303,0.402226,0.0,49.83208,24.041529,339.0,NaN,2.232,26.0,0.0,12 / 12,356721,2020-03-11 10:45:27:180
12.727576,-2.001553,-0.914585,0.0,49.83208,24.041529,339.0,NaN,2.232,26.0,0.0,12 / 12,357221,2020-03-11 10:45:27:680
10.122684,1.04866,0.59855,0.0,49.83208,24.041529,339.0,NaN,2.232,26.0,0.0,12 / 12,357720,2020-03-11 10:45:28:179
7.254431,-2.351106,-0.095768,0.0,49.83208,24.041529,339.0,NaN,2.232,26.0,0.0,12 / 12,358220,2020-03-11 10:45:28:679
4.434062,-1.321599,-0.363919,0.0,49.83208,24.041529,339.0,NaN,2.232,26.0,0.0,12 / 12,358721,2020-03-11 10:45:29:180
5.64074,1.264139,2.801216,0.0,49.83208,24.041529,339.0,NaN,2.232,26.0,0.0,12 / 12,359220,2020-03-11 10:45:29:679
11.621455,-1.963245,7.192182,0.0,49.83208,24.041529,339.0,NaN,2.232,26.0,0.0,12 / 12,359720,2020-03-11 10:45:30:179
7.608773,-3.672705,7.450756,0.0,49.83208,24.041529,339.0,NaN,2.232,26.0,0.0,12 / 12,360221,2020-03-11 10:45:30:680
10.817003,-2.1883,12.028469,0.0,49.83208,24.041529,339.0,NaN,2.232,26.0,0.0,12 / 12,360721,2020-03-11 10:45:31:180
10.524911,-4.453215,12.35887,0.0,49.83208,24.041529,339.0,NaN,2.232,26.0,0.0,12 / 12,361220,2020-03-11 10:45:31:679
15.126566,-2.806004,2.269703,0.0,49.83208,24.041529,339.0,NaN,2.232,26.0,0.0,12 / 12,361720,2020-03-11 10:45:32:179
12.090718,3.217807,1.422156,0.0,49.83208,24.041529,339.0,NaN,2.232,26.0,0.0,12 / 12,362221,2020-03-11 10:45:32:680
7.785944,-1.637634,-0.383072,0.0,49.83208,24.041529,339.0,NaN,2.232,26.0,0.0,12 / 12,362721,2020-03-11 10:45:33:180
5.267244,-0.143652,1.383849,0.0,49.83208,24.041529,339.0,NaN,2.232,26.0,0.0,12 / 12,363220,2020-03-11 10:45:33:679
6.090849,0.814029,3.442862,0.0,49.83208,24.041529,339.0,NaN,2.232,26.0,0.0,12 / 12,363720,2020-03-11 10:45:34:179
9.634268,-2.513912,9.552865,0.0,49.83208,24.041529,339.0,NaN,2.232,26.0,0.0,12 / 12,364220,2020-03-11 10:45:34:679
7.426814,0.565032,2.111686,0.0,49.83208,24.041529,339.0,NaN,2.232,26.0,0.0,12 / 12,364721,2020-03-11 10:45:35:180
10.184934,-1.197101,5.252879,0.0,49.83208,24.041529,339.0,NaN,2.232,26.0,0.0,12 / 12,365221,2020-03-11 10:45:35:680
11.420342,-5.72693,9.955091,0.0,49.83208,24.041529,339.0,NaN,2.232,26.0,0.0,12 / 12,365721,2020-03-11 10:45:36:180
16.189592,-2.839523,1.37906,0.0,49.83208,24.041529,339.0,NaN,2.232,26.0,0.0,12 / 12,366220,2020-03-11 10:45:36:679
11.439496,1.407791,0.78051,0.0,49.83208,24.041529,339.0,NaN,2.232,26.0,0.0,12 / 12,366720,2020-03-11 10:45:37:179
5.846641,-2.111686,-0.311246,0.0,49.83208,24.041529,339.0,NaN,2.232,26.0,0.0,12 / 12,367221,2020-03-11 10:45:37:680
3.77805,-0.703895,0.392649,0.0,49.83208,24.041529,339.0,NaN,2.232,26.0,0.0,12 / 12,367721,2020-03-11 10:45:38:180
5.731719,1.388637,3.883395,0.0,49.83208,24.041529,339.0,NaN,2.232,26.0,0.0,12 / 12,368220,2020-03-11 10:45:38:679
4.19943,-0.512359,0.584185,0.0,49.83208,24.041529,339.0,NaN,2.232,26.0,0.0,12 / 12,368720,2020-03-11 10:45:39:179
4.577714,0.325611,3.931279,0.0,49.83208,24.041529,339.0,NaN,2.232,26.0,0.0,12 / 12,369221,2020-03-11 10:45:39:680
10.477027,-1.426944,2.964022,0.0,49.83208,24.041529,339.0,NaN,2.232,26.0,0.0,12 / 12,369721,2020-03-11 10:45:40:180
12.08593,-5.33907,7.723695,0.0,49.83208,24.041529,339.0,NaN,2.232,26.0,0.0,12 / 12,370221,2020-03-11 10:45:40:680
13.996503,-6.464344,5.48751,0.0,49.83208,24.041529,339.0,NaN,2.232,26.0,0.0,12 / 12,370720,2020-03-11 10:45:41:179
12.392388,1.599327,0.47884,0.0,49.83208,24.041529,339.0,NaN,2.232,26.0,0.0,12 / 12,371220,2020-03-11 10:45:41:679
8.092402,-2.102109,-0.469264,0.0,49.83208,24.041529,339.0,NaN,2.232,26.0,0.0,12 / 12,371721,2020-03-11 10:45:42:180
4.716578,-0.766144,0.871489,0.0,49.83208,24.041529,339.0,NaN,2.232,26.0,0.0,12 / 12,372220,2020-03-11 10:45:42:679
8.202535,-1.977611,-1.000776,0.0,49.83208,24.041529,339.0,NaN,2.232,26.0,0.0,12 / 12,372720,2020-03-11 10:45:43:179
5.003882,-0.454898,1.154005,0.0,49.83208,24.041529,339.0,NaN,2.232,26.0,0.0,12 / 12,373220,2020-03-11 10:45:43:679
5.056554,0.675165,2.748544,0.0,49.83208,24.041529,339.0,NaN,2.232,26.0,0.0,12 / 12,373721,2020-03-11 10:45:44:180
10.994174,-1.173159,4.031836,0.0,49.83208,24.041529,339.0,NaN,2.232,26.0,0.0,12 / 12,374221,2020-03-11 10:45:44:680
11.329363,-6.248866,3.457227,0.0,49.83208,24.041529,339.0,NaN,2.232,26.0,0.0,12 / 12,374720,2020-03-11 10:45:45:179
17.707516,-6.861782,6.909666,0.0,49.83208,24.041529,339.0,NaN,2.232,26.0,0.0,12 / 12,375221,2020-03-11 10:45:45:680
13.024457,1.537078,0.507571,0.0,49.83208,24.041529,339.0,NaN,2.232,26.0,0.0,12 / 12,375720,2020-03-11 10:45:46:179
10.606314,-1.824382,-2.504335,0.0,49.83208,24.041529,339.0,NaN,2.232,26.0,0.0,12 / 12,376221,2020-03-11 10:45:46:680
12.689269,1.211466,0.387861,0.0,49.83208,24.041529,339.0,NaN,2.232,26.0,0.0,12 / 12,376721,2020-03-11 10:45:47:180
12.071565,-1.92015,-1.915361,0.0,49.83208,24.041529,339.0,NaN,2.232,26.0,0.0,12 / 12,377222,2020-03-11 10:45:47:681
6.33027,0.45011,1.115698,0.0,49.83208,24.041529,339.0,NaN,2.232,26.0,0.0,12 / 12,377720,2020-03-11 10:45:48:179
4.429273,-0.47884,2.442086,0.0,49.83208,24.041529,339.0,NaN,2.232,26.0,0.0,12 / 12,378220,2020-03-11 10:45:48:679
10.888829,-0.976834,3.05979,0.0,49.83208,24.041529,339.0,NaN,2.232,26.0,0.0,12 / 12,378720,2020-03-11 10:45:49:179
6.880936,-4.807557,12.277467,0.0,49.83208,24.041529,339.0,NaN,2.232,26.0,0.0,12 / 12,379221,2020-03-11 10:45:49:680
16.050728,-0.799663,-2.978387,0.0,49.83208,24.041529,339.0,NaN,2.232,26.0,0.0,12 / 12,379721,2020-03-11 10:45:50:180
11.133038,0.057461,0.177171,0.0,49.83208,24.041529,339.0,NaN,2.232,26.0,0.0,12 / 12,380221,2020-03-11 10:45:50:680
16.759413,-2.633622,0.651223,0.0,49.83208,24.041529,339.0,NaN,2.232,26.0,0.0,12 / 12,380720,2020-03-11 10:45:51:179
11.324574,1.288081,0.258574,0.0,49.83208,24.041529,339.0,NaN,2.232,26.0,0.0,12 / 12,381220,2020-03-11 10:45:51:679
5.655105,-2.523488,-0.71826,0.0,49.83208,24.041529,339.0,NaN,2.232,26.0,0.0,12 / 12,381721,2020-03-11 10:45:52:180
3.758897,-0.785298,0.047884,0.0,49.83208,24.041529,339.0,NaN,2.232,26.0,0.0,12 / 12,382220,2020-03-11 10:45:52:679
6.272809,1.867477,3.931279,0.0,49.83208,24.041529,339.0,NaN,2.232,26.0,0.0,12 / 12,382720,2020-03-11 10:45:53:179
10.97502,-2.025495,9.452309,0.0,49.83208,24.041529,339.0,NaN,2.232,26.0,0.0,12 / 12,383221,2020-03-11 10:45:53:680
8.379707,-7.034164,10.496181,0.0,49.83208,24.041529,339.0,NaN,2.232,26.0,0.0,12 / 12,383721,2020-03-11 10:45:54:180
16.007633,-5.913678,5.449203,0.0,49.83208,24.041529,339.0,NaN,2.232,26.0,0.0,12 / 12,384221,2020-03-11 10:45:54:680
9.854534,-5.707777,3.591303,0.0,49.83208,24.041529,339.0,NaN,2.232,26.0,0.0,12 / 12,384721,2020-03-11 10:45:55:180
5.075708,-5.382165,2.355895,0.0,49.83208,24.041529,339.0,NaN,2.232,26.0,0.0,12 / 12,385220,2020-03-11 10:45:55:679
14.992491,-1.388637,-0.459687,0.0,49.83208,24.041529,339.0,NaN,2.232,26.0,0.0,12 / 12,385720,2020-03-11 10:45:56:179
10.692505,-0.45011,-1.551443,0.0,49.83208,24.041529,339.0,NaN,2.232,26.0,0.0,12 / 12,386221,2020-03-11 10:45:56:680
5.655105,-0.100556,1.369483,0.0,49.83208,24.041529,339.0,NaN,2.232,26.0,0.0,12 / 12,386721,2020-03-11 10:45:57:180
3.41892,-1.345541,1.982399,0.0,49.83208,24.041529,339.0,NaN,2.232,26.0,0.0,12 / 12,387220,2020-03-11 10:45:57:679
7.814675,-2.542642,0.134075,0.0,49.83208,24.041529,339.0,NaN,2.232,26.0,0.0,12 / 12,387720,2020-03-11 10:45:58:179
10.907983,-6.689399,2.006341,0.0,49.83208,24.041529,339.0,NaN,2.232,26.0,0.0,12 / 12,388220,2020-03-11 10:45:58:679
7.762002,-2.39899,1.642422,0.0,49.83208,24.041529,339.0,NaN,2.232,26.0,0.0,12 / 12,388720,2020-03-11 10:45:59:179
11.343728,-6.421249,1.455675,0.0,49.83208,24.041529,339.0,NaN,2.232,26.0,0.0,12 / 12,389221,2020-03-11 10:45:59:680
4.845865,-3.562572,4.41012,0.0,49.83208,24.041529,339.0,NaN,2.232,26.0,0.0,12 / 12,389721,2020-03-11 10:46:00:180
13.498509,0.344765,0.684742,0.0,49.83208,24.041529,339.0,NaN,2.232,26.0,0.0,12 / 12,390220,2020-03-11 10:46:00:679
13.867216,-2.557007,-2.111686,0.0,49.83208,24.041529,339.0,NaN,2.232,26.0,0.0,12 / 12,390721,2020-03-11 10:46:01:180
6.469133,-0.186748,1.752556,0.0,49.83208,24.041529,339.0,NaN,2.232,26.0,0.0,12 / 12,391221,2020-03-11 10:46:01:680
4.232949,-1.608903,0.938527,0.0,49.83208,24.041529,339.0,NaN,2.232,26.0,0.0,12 / 12,391720,2020-03-11 10:46:02:179
6.196194,-3.581726,-1.249773,0.0,49.83208,24.041529,339.0,NaN,2.232,26.0,0.0,12 / 12,392220,2020-03-11 10:46:02:679
11.377247,-2.537854,-1.163582,0.0,49.83208,24.041529,339.0,NaN,2.232,26.0,0.0,12 / 12,392720,2020-03-11 10:46:03:179
5.396531,-3.902549,-0.21069,0.0,49.83208,24.041529,339.0,NaN,2.232,26.0,0.0,12 / 12,393220,2020-03-11 10:46:03:679
9.969456,-1.565808,-1.853112,0.0,49.83208,24.041529,339.0,NaN,2.232,26.0,0.0,12 / 12,393721,2020-03-11 10:46:04:180
10.55843,-1.723825,3.663129,0.0,49.83208,24.041529,339.0,NaN,2.232,26.0,0.0,12 / 12,394221,2020-03-11 10:46:04:680
15.006856,-1.762132,-0.162806,0.0,49.83208,24.041529,339.0,NaN,2.232,26.0,0.0,12 / 12,394720,2020-03-11 10:46:05:179
14.274231,-1.886631,-4.774038,0.0,49.83208,24.041529,339.0,NaN,2.232,26.0,0.0,12 / 12,395221,2020-03-11 10:46:05:680
9.730036,0.411803,-0.737414,0.0,49.83208,24.041529,339.0,NaN,2.232,26.0,0.0,12 / 12,395720,2020-03-11 10:46:06:179
4.510676,-1.996764,0.196325,0.0,49.83208,24.041529,339.0,NaN,2.232,26.0,0.0,12 / 12,396220,2020-03-11 10:46:06:679
5.688624,-2.944868,-2.154781,0.0,49.83208,24.041529,339.0,NaN,2.232,26.0,0.0,0 / 0,396721,2020-03-11 10:46:07:180
9.452309,1.010353,-0.952892,0.0,49.83208,24.041529,339.0,NaN,2.232,26.0,0.0,0 / 0,397220,2020-03-11 10:46:07:679
4.774039,-2.006341,-1.039083,0.0,49.83208,24.041529,339.0,NaN,2.232,26.0,0.0,0 / 2,397720,2020-03-11 10:46:08:179
8.532935,1.977611,0.129287,0.0,49.83208,24.041529,339.0,NaN,2.232,26.0,0.0,0 / 4,398221,2020-03-11 10:46:08:680
8.714894,-0.493206,13.464991,0.0,49.83208,24.041529,339.0,NaN,2.232,26.0,0.0,0 / 4,398723,2020-03-11 10:46:09:182
11.022904,-0.378284,4.003105,0.0,49.83208,24.041529,339.0,NaN,2.232,26.0,0.0,0 / 4,399220,2020-03-11 10:46:09:679
14.609419,-0.967257,-2.116474,0.0,49.83208,24.041529,339.0,NaN,2.232,26.0,0.0,0 / 4,399720,2020-03-11 10:46:10:179
11.391612,1.187524,0.976834,0.0,49.832634,24.040955,337.0,NaN,3.852,27.0,353.9,10 / 10,400221,2020-03-11 10:46:10:680
6.234502,-1.604115,-0.402226,0.0,49.832634,24.040955,337.0,NaN,3.852,27.0,353.9,10 / 10,400720,2020-03-11 10:46:11:179
4.520253,-0.526724,-0.416591,0.0,49.832634,24.040955,337.0,NaN,3.852,27.0,353.9,10 / 10,401220,2020-03-11 10:46:11:679
7.25922,2.442086,1.604115,0.0,49.832634,24.040955,337.0,NaN,3.852,27.0,353.9,10 / 10,401720,2020-03-11 10:46:12:179
10.874464,-1.072602,4.050989,0.0,49.832634,24.040955,337.0,NaN,3.852,27.0,353.9,10 / 10,402220,2020-03-11 10:46:12:679
10.529699,-4.462792,13.393165,0.0,49.832634,24.040955,337.0,NaN,3.852,27.0,353.9,10 / 10,402721,2020-03-11 10:46:13:180
11.089942,-1.37906,7.024588,0.0,49.832634,24.040955,337.0,NaN,3.852,27.0,353.9,10 / 10,403221,2020-03-11 10:46:13:680
7.536947,-2.264915,8.580819,0.0,49.832634,24.040955,337.0,NaN,3.852,27.0,353.9,10 / 10,403721,2020-03-11 10:46:14:180
16.342821,-0.301669,-2.499546,0.0,49.832634,24.040955,337.0,NaN,3.852,27.0,353.9,10 / 10,404220,2020-03-11 10:46:14:679
9.940725,0.225055,-1.201889,0.0,49.832634,24.040955,337.0,NaN,3.852,27.0,353.9,10 / 10,404720,2020-03-11 10:46:15:179
5.971139,-1.68073,0.976834,0.0,49.832634,24.040955,337.0,NaN,3.852,27.0,353.9,10 / 10,405220,2020-03-11 10:46:15:679
4.721366,-3.131616,-1.177947,0.0,49.832634,24.040955,337.0,NaN,3.852,27.0,353.9,10 / 10,405720,2020-03-11 10:46:16:179
9.346964,1.393425,-0.019154,0.0,49.832634,24.040955,337.0,NaN,3.852,27.0,353.9,10 / 10,406220,2020-03-11 10:46:16:679
8.767567,-0.703895,5.645528,0.0,49.832634,24.040955,337.0,NaN,3.852,27.0,353.9,10 / 10,406720,2020-03-11 10:46:17:179
9.840169,1.805228,-2.226607,0.0,49.832634,24.040955,337.0,NaN,3.852,27.0,353.9,10 / 10,407221,2020-03-11 10:46:17:680
9.715671,-1.934515,6.842629,0.0,49.832634,24.040955,337.0,NaN,3.852,27.0,353.9,10 / 10,407721,2020-03-11 10:46:18:180
13.642161,-0.54109,-0.21069,0.0,49.832634,24.040955,337.0,NaN,3.852,27.0,353.9,10 / 10,408221,2020-03-11 10:46:18:680
13.278243,-0.732626,-4.371812,0.0,49.832634,24.040955,337.0,NaN,3.852,27.0,353.9,10 / 10,408720,2020-03-11 10:46:19:179
9.260772,0.727837,-1.163582,0.0,49.832634,24.040955,337.0,NaN,3.852,27.0,353.9,10 / 10,409220,2020-03-11 10:46:19:679
5.224149,-1.661576,0.320823,0.0,49.832634,24.040955,337.0,NaN,3.852,27.0,353.9,10 / 10,409721,2020-03-11 10:46:20:180
5.865794,-3.375824,-0.426168,0.0,49.832634,24.040955,337.0,NaN,3.852,27.0,353.9,10 / 10,410221,2020-03-11 10:46:20:680
11.128249,-1.728614,-0.038307,0.0,49.832634,24.040955,337.0,NaN,3.852,27.0,353.9,10 / 10,410720,2020-03-11 10:46:21:179
5.741296,-3.792415,-1.283292,0.0,49.832634,24.040955,337.0,NaN,3.852,27.0,353.9,10 / 10,411220,2020-03-11 10:46:21:679
9.739613,-0.871489,-2.533065,0.0,49.832634,24.040955,337.0,NaN,3.852,27.0,353.9,10 / 10,411721,2020-03-11 10:46:22:180
7.25922,-1.786074,2.662352,0.0,49.832634,24.040955,337.0,NaN,3.852,27.0,353.9,10 / 10,412221,2020-03-11 10:46:22:680
14.341269,-2.207454,0.833182,0.0,49.832634,24.040955,337.0,NaN,3.852,27.0,353.9,10 / 10,412721,2020-03-11 10:46:23:180
13.431472,-4.050989,-3.945644,0.0,49.832634,24.040955,337.0,NaN,3.852,27.0,353.9,10 / 10,413220,2020-03-11 10:46:23:679
7.876924,-0.043096,0.952892,0.0,49.832634,24.040955,337.0,NaN,3.852,27.0,353.9,10 / 10,413721,2020-03-11 10:46:24:180
3.581726,-1.479617,1.091756,0.0,49.832634,24.040955,337.0,NaN,3.852,27.0,353.9,10 / 10,414221,2020-03-11 10:46:24:680
5.267244,-4.845864,1.273715,0.0,49.832634,24.040955,337.0,NaN,3.852,27.0,353.9,10 / 10,414720,2020-03-11 10:46:25:179
3.552995,-1.623269,0.828394,0.0,49.832634,24.040955,337.0,NaN,3.852,27.0,353.9,10 / 10,415221,2020-03-11 10:46:25:680
6.133945,-4.22816,-0.938527,0.0,49.832634,24.040955,337.0,NaN,3.852,27.0,353.9,10 / 10,415721,2020-03-11 10:46:26:180
10.184934,-1.024718,-1.316811,0.0,49.832634,24.040955,337.0,NaN,3.852,27.0,353.9,10 / 10,416221,2020-03-11 10:46:26:680
8.935161,-1.412579,-0.114922,0.0,49.832634,24.040955,337.0,NaN,3.852,27.0,353.9,10 / 10,416721,2020-03-11 10:46:27:180
14.915876,-1.288081,0.349553,0.0,49.832634,24.040955,337.0,NaN,3.852,27.0,353.9,10 / 10,417220,2020-03-11 10:46:27:679
13.01488,-4.481945,-0.138864,0.0,49.832634,24.040955,337.0,NaN,3.852,27.0,353.9,10 / 10,417720,2020-03-11 10:46:28:179
7.891289,0.45011,1.086968,0.0,49.832634,24.040955,337.0,NaN,3.852,27.0,353.9,10 / 10,418221,2020-03-11 10:46:28:680
4.898537,-1.340753,1.719037,0.0,49.832634,24.040955,337.0,NaN,3.852,27.0,353.9,10 / 10,418721,2020-03-11 10:46:29:180
7.714118,0.545878,1.527501,0.0,49.832634,24.040955,337.0,NaN,3.852,27.0,353.9,10 / 10,419221,2020-03-11 10:46:29:680
4.103662,-1.733402,2.097321,0.0,49.832634,24.040955,337.0,NaN,3.852,27.0,353.9,10 / 10,419720,2020-03-11 10:46:30:179
11.63582,-2.087744,5.315128,0.0,49.832634,24.040955,337.0,NaN,3.852,27.0,353.9,10 / 10,420220,2020-03-11 10:46:30:679
12.306197,-2.250549,2.470816,0.0,49.832634,24.040955,337.0,NaN,3.852,27.0,353.9,10 / 10,420720,2020-03-11 10:46:31:179
17.310078,-4.10845,1.987187,0.0,49.832634,24.040955,337.0,NaN,3.852,27.0,353.9,10 / 10,421221,2020-03-11 10:46:31:680
15.768212,2.140417,-0.052672,0.0,49.832634,24.040955,337.0,NaN,3.852,27.0,353.9,10 / 10,421721,2020-03-11 10:46:32:180
13.450625,-7.086837,3.251326,0.0,49.832634,24.040955,337.0,NaN,3.852,27.0,353.9,10 / 10,422221,2020-03-11 10:46:32:680
8.944737,1.288081,1.268927,0.0,49.832634,24.040955,337.0,NaN,3.852,27.0,353.9,10 / 10,422720,2020-03-11 10:46:33:179
13.64695,-1.82917,-4.065354,0.0,49.832634,24.040955,337.0,NaN,3.852,27.0,353.9,10 / 10,423221,2020-03-11 10:46:33:680
8.48984,0.823605,1.063026,0.0,49.832634,24.040955,337.0,NaN,3.852,27.0,353.9,10 / 10,423721,2020-03-11 10:46:34:180
4.1707,-1.096544,0.823605,0.0,49.832634,24.040955,337.0,NaN,3.852,27.0,353.9,10 / 10,424220,2020-03-11 10:46:34:679
4.156334,-3.308787,-0.943315,0.0,49.832634,24.040955,337.0,NaN,3.852,27.0,353.9,10 / 10,424721,2020-03-11 10:46:35:180
4.587291,0.320823,2.715025,0.0,49.832634,24.040955,337.0,NaN,3.852,27.0,353.9,10 / 10,425221,2020-03-11 10:46:35:680
12.148179,-2.006341,4.793192,0.0,49.832634,24.040955,337.0,NaN,3.852,27.0,353.9,0 / 0,425720,2020-03-11 10:46:36:179
12.26789,-8.532935,3.433285,0.0,49.832634,24.040955,337.0,NaN,3.852,27.0,353.9,0 / 1,426221,2020-03-11 10:46:36:680
16.050728,-3.457227,-0.086191,0.0,49.832634,24.040955,337.0,NaN,3.852,27.0,353.9,0 / 1,426721,2020-03-11 10:46:37:180
8.418014,-2.772485,7.967903,0.0,49.832634,24.040955,337.0,NaN,3.852,27.0,353.9,0 / 7,427220,2020-03-11 10:46:37:679
16.749836,-3.931279,3.993528,0.0,49.832634,24.040955,337.0,NaN,3.852,27.0,353.9,0 / 7,427720,2020-03-11 10:46:38:179
13.441049,0.713472,0.3304,0.0,49.832634,24.040955,337.0,NaN,3.852,27.0,353.9,14 / 15,428220,2020-03-11 10:46:38:679
8.939949,-2.446874,-0.699107,0.0,49.832634,24.040955,337.0,NaN,3.852,27.0,353.9,13 / 13,428720,2020-03-11 10:46:39:179
5.449203,-0.339977,0.512359,0.0,49.832634,24.040955,337.0,NaN,3.852,27.0,353.9,13 / 13,429221,2020-03-11 10:46:39:680
6.181829,0.59855,2.360683,0.0,49.832634,24.040955,337.0,NaN,3.852,27.0,353.9,18 / 18,429721,2020-03-11 10:46:40:180
11.013328,-1.982399,7.728483,0.0,49.832634,24.040955,337.0,NaN,3.852,27.0,353.9,18 / 18,430221,2020-03-11 10:46:40:680
9.710882,-5.200206,12.425907,0.0,49.832634,24.040955,337.0,NaN,3.852,27.0,353.9,18 / 18,430720,2020-03-11 10:46:41:179
10.510546,-1.101333,4.620809,0.0,49.832634,24.040955,337.0,NaN,3.852,27.0,353.9,18 / 18,431220,2020-03-11 10:46:41:679
11.477803,0.220267,8.418014,0.0,49.832634,24.040955,337.0,NaN,3.852,27.0,353.9,18 / 18,431720,2020-03-11 10:46:42:179
17.199945,1.187524,-3.739743,0.0,49.832634,24.040955,337.0,NaN,3.852,27.0,353.9,18 / 18,432221,2020-03-11 10:46:42:680
12.550406,3.552995,1.987187,0.0,49.832634,24.040955,337.0,NaN,3.852,27.0,353.9,18 / 18,432721,2020-03-11 10:46:43:180
5.659893,-1.302446,-0.153229,0.0,49.832634,24.040955,337.0,NaN,3.852,27.0,353.9,18 / 18,433220,2020-03-11 10:46:43:679
4.898537,0.316035,1.651999,0.0,49.832634,24.040955,337.0,NaN,3.852,27.0,353.9,18 / 18,433720,2020-03-11 10:46:44:179
11.166556,0.148441,0.248997,0.0,49.832634,24.040955,337.0,NaN,3.852,27.0,353.9,18 / 18,434220,2020-03-11 10:46:44:679
3.60088,-3.773262,6.971915,0.0,49.832634,24.040955,337.0,NaN,3.852,27.0,353.9,18 / 18,434721,2020-03-11 10:46:45:180
12.196063,-5.0374,1.656788,0.0,49.832634,24.040955,337.0,NaN,3.852,27.0,353.9,18 / 18,435221,2020-03-11 10:46:45:680
9.054871,-8.585608,6.722919,0.0,49.832634,24.040955,337.0,NaN,3.852,27.0,353.9,18 / 18,435721,2020-03-11 10:46:46:180
14.192827,0.129287,1.168371,0.0,49.832634,24.040955,337.0,NaN,3.852,27.0,353.9,18 / 18,436220,2020-03-11 10:46:46:679
12.694057,-3.040636,0.023942,0.0,49.832634,24.040955,337.0,NaN,3.852,27.0,353.9,18 / 18,436720,2020-03-11 10:46:47:179
6.263232,-0.483629,1.733402,0.0,49.832634,24.040955,337.0,NaN,3.852,27.0,353.9,18 / 18,437221,2020-03-11 10:46:47:680
3.5099,-0.71826,2.011129,0.0,49.832634,24.040955,337.0,NaN,3.852,27.0,353.9,18 / 18,437720,2020-03-11 10:46:48:179
9.227253,-1.35033,2.217031,0.0,49.832634,24.040955,337.0,NaN,3.852,27.0,353.9,18 / 18,438220,2020-03-11 10:46:48:679
12.3876,-6.306327,-0.555455,0.0,49.832634,24.040955,337.0,NaN,3.852,27.0,353.9,18 / 18,438721,2020-03-11 10:46:49:180
9.126697,-2.030283,1.719037,0.0,49.832634,24.040955,337.0,NaN,3.852,27.0,353.9,18 / 18,439221,2020-03-11 10:46:49:680
13.618219,-5.176264,0.833182,0.0,49.832634,24.040955,337.0,NaN,3.852,27.0,353.9,18 / 18,439720,2020-03-11 10:46:50:179
6.177041,-6.698976,5.410896,0.0,49.832634,24.040955,337.0,NaN,3.852,27.0,353.9,18 / 18,440220,2020-03-11 10:46:50:679
14.192827,-0.363919,-0.871489,0.0,49.832634,24.040955,337.0,NaN,3.852,27.0,353.9,18 / 18,440721,2020-03-11 10:46:51:180
12.004527,-6.301539,3.055001,0.0,49.832634,24.040955,337.0,NaN,3.852,27.0,353.9,18 / 18,441221,2020-03-11 10:46:51:680
7.996634,0.416591,1.182736,0.0,49.832634,24.040955,337.0,NaN,3.852,27.0,353.9,18 / 18,441721,2020-03-11 10:46:52:180
2.408567,-1.321599,2.006341,0.0,49.832634,24.040955,337.0,NaN,3.852,27.0,353.9,18 / 18,442220,2020-03-11 10:46:52:679
7.685388,-2.901772,-0.56982,0.0,49.832634,24.040955,337.0,NaN,3.852,27.0,353.9,18 / 18,442721,2020-03-11 10:46:53:180
2.600103,-1.513135,1.383849,0.0,49.832634,24.040955,337.0,NaN,3.852,27.0,353.9,18 / 18,443220,2020-03-11 10:46:53:679
5.252879,-3.141193,-0.220267,0.0,49.832634,24.040955,337.0,NaN,3.852,27.0,353.9,18 / 18,443720,2020-03-11 10:46:54:179
12.947843,-2.724601,0.320823,0.0,49.832634,24.040955,337.0,NaN,3.852,27.0,353.9,18 / 18,444220,2020-03-11 10:46:54:679
8.954314,-1.642422,-0.167594,0.0,49.832634,24.040955,337.0,NaN,3.852,27.0,353.9,18 / 18,444721,2020-03-11 10:46:55:180
14.762648,-0.54109,-0.368707,0.0,49.832634,24.040955,337.0,NaN,3.852,27.0,353.9,18 / 18,445221,2020-03-11 10:46:55:680
13.182474,-1.723825,-4.639962,0.0,49.832634,24.040955,337.0,NaN,3.852,27.0,353.9,18 / 18,445720,2020-03-11 10:46:56:179
9.619903,0.751779,1.043872,0.0,49.832634,24.040955,337.0,NaN,3.852,27.0,353.9,18 / 18,446220,2020-03-11 10:46:56:679
2.657564,-1.608903,1.56102,0.0,49.832634,24.040955,337.0,NaN,3.852,27.0,353.9,18 / 18,446721,2020-03-11 10:46:57:180
9.466674,0.641646,0.258574,0.0,49.832634,24.040955,337.0,NaN,3.852,27.0,353.9,18 / 18,447220,2020-03-11 10:46:57:679
4.362236,-1.723825,0.694319,0.0,49.832634,24.040955,337.0,NaN,3.852,27.0,353.9,18 / 18,447721,2020-03-11 10:46:58:180
4.29041,-3.193865,-0.641646,0.0,49.832634,24.040955,337.0,NaN,3.852,27.0,353.9,18 / 18,448221,2020-03-11 10:46:58:680
8.231265,1.637634,-1.431733,0.0,49.832634,24.040955,337.0,NaN,3.852,27.0,353.9,18 / 18,448721,2020-03-11 10:46:59:180
10.089166,-2.5187,8.576031,0.0,49.832634,24.040955,337.0,NaN,3.852,27.0,353.9,18 / 18,449220,2020-03-11 10:46:59:679
10.94629,-2.317587,1.455675,0.0,49.832634,24.040955,337.0,NaN,3.852,27.0,353.9,18 / 18,449721,2020-03-11 10:47:00:180
14.264654,-1.273715,-4.659116,0.0,49.832634,24.040955,337.0,NaN,3.852,27.0,353.9,18 / 18,450221,2020-03-11 10:47:00:680
11.626244,0.517148,-1.838747,0.0,49.832634,24.040955,337.0,NaN,3.852,27.0,353.9,18 / 18,450721,2020-03-11 10:47:01:180
15.409082,-1.335964,-1.699883,0.0,49.832634,24.040955,337.0,NaN,3.852,27.0,353.9,18 / 18,451220,2020-03-11 10:47:01:679
12.320562,0.861913,1.369483,0.0,49.832634,24.040955,337.0,NaN,3.852,27.0,353.9,18 / 18,451721,2020-03-11 10:47:02:180
11.592725,-0.967257,-1.733402,0.0,49.832634,24.040955,337.0,NaN,3.852,27.0,353.9,18 / 18,452220,2020-03-11 10:47:02:679
5.267244,-0.555455,0.842759,0.0,49.832634,24.040955,337.0,NaN,3.852,27.0,353.9,18 / 18,452720,2020-03-11 10:47:03:179
5.00867,-0.454898,2.748544,0.0,49.832634,24.040955,337.0,NaN,3.852,27.0,353.9,18 / 18,453221,2020-03-11 10:47:03:680
12.579136,-0.512359,5.765238,0.0,49.832634,24.040955,337.0,NaN,3.852,27.0,353.9,18 / 18,453720,2020-03-11 10:47:04:179
9.375694,-3.902549,10.180145,0.0,49.832634,24.040955,337.0,NaN,3.852,27.0,353.9,18 / 18,454220,2020-03-11 10:47:04:679
15.581465,-3.20823,-0.584185,0.0,49.832634,24.040955,337.0,NaN,3.852,27.0,353.9,18 / 18,454721,2020-03-11 10:47:05:180
10.328587,-1.067814,4.13718,0.0,49.832634,24.040955,337.0,NaN,3.852,27.0,353.9,18 / 18,455221,2020-03-11 10:47:05:680
14.733917,1.766921,-3.093309,0.0,49.832634,24.040955,337.0,NaN,3.852,27.0,353.9,18 / 18,455720,2020-03-11 10:47:06:179
11.511322,0.828394,0.440533,0.0,49.832634,24.040955,337.0,NaN,3.852,27.0,353.9,18 / 18,456221,2020-03-11 10:47:06:680
5.942409,-1.393425,-0.158017,0.0,49.832634,24.040955,337.0,NaN,3.852,27.0,353.9,18 / 18,456721,2020-03-11 10:47:07:180
5.626374,0.426168,0.905008,0.0,49.832634,24.040955,337.0,NaN,3.852,27.0,353.9,18 / 18,457221,2020-03-11 10:47:07:680
7.70933,5.085284,6.05733,0.0,49.832634,24.040955,337.0,NaN,3.852,27.0,353.9,18 / 18,457720,2020-03-11 10:47:08:179
11.69807,-2.035071,7.685388,0.0,49.832634,24.040955,337.0,NaN,3.852,27.0,353.9,18 / 18,458220,2020-03-11 10:47:08:679
11.678916,-2.288857,2.092532,0.0,49.832634,24.040955,337.0,NaN,3.852,27.0,353.9,18 / 18,458720,2020-03-11 10:47:09:179
11.880029,-1.561019,12.421119,0.0,49.832634,24.040955,337.0,NaN,3.852,27.0,353.9,18 / 18,459221,2020-03-11 10:47:09:680
9.931149,-3.318364,7.129933,0.0,49.832634,24.040955,337.0,NaN,3.852,27.0,353.9,18 / 18,459721,2020-03-11 10:47:10:180
16.486473,1.757344,-1.503559,0.0,49.832634,24.040955,337.0,NaN,3.852,27.0,353.9,18 / 18,460220,2020-03-11 10:47:10:679
11.880029,1.029507,1.063026,0.0,49.832634,24.040955,337.0,NaN,3.852,27.0,353.9,18 / 18,460720,2020-03-11 10:47:11:179
6.038177,-1.441309,-0.699107,0.0,49.832634,24.040955,337.0,NaN,3.852,27.0,353.9,18 / 18,461220,2020-03-11 10:47:11:679
5.406108,-0.3304,0.775721,0.0,49.832634,24.040955,337.0,NaN,3.852,27.0,353.9,18 / 18,461721,2020-03-11 10:47:12:180
7.685388,1.80044,1.249773,0.0,49.832634,24.040955,337.0,NaN,3.852,27.0,353.9,18 / 18,462220,2020-03-11 10:47:12:679
9.844957,-2.815581,9.045294,0.0,49.832634,24.040955,337.0,NaN,3.852,27.0,353.9,18 / 18,462720,2020-03-11 10:47:13:179
8.183381,1.723825,-0.995988,0.0,49.832634,24.040955,337.0,NaN,3.852,27.0,353.9,18 / 18,463221,2020-03-11 10:47:13:680
10.778696,-2.446874,8.073248,0.0,49.832634,24.040955,337.0,NaN,3.852,27.0,353.9,18 / 18,463721,2020-03-11 10:47:14:180
8.317456,-3.691859,6.253655,0.0,49.832634,24.040955,337.0,NaN,3.852,27.0,353.9,18 / 18,464221,2020-03-11 10:47:14:680
15.126566,-0.54109,1.158794,0.0,49.832634,24.040955,337.0,NaN,3.852,27.0,353.9,18 / 18,464720,2020-03-11 10:47:15:179
11.741165,0.593762,1.182736,0.0,49.832634,24.040955,337.0,NaN,3.852,27.0,353.9,18 / 18,465220,2020-03-11 10:47:15:679
7.37893,-1.244985,0.004788,0.0,49.832634,24.040955,337.0,NaN,3.852,27.0,353.9,18 / 18,465721,2020-03-11 10:47:16:180
5.085284,0.617704,0.177171,0.0,49.832634,24.040955,337.0,NaN,3.852,27.0,353.9,18 / 18,466221,2020-03-11 10:47:16:680
4.55856,0.062249,2.403779,0.0,49.832634,24.040955,337.0,NaN,3.852,27.0,353.9,18 / 18,466721,2020-03-11 10:47:17:180
6.042965,-0.052672,1.010353,0.0,49.832634,24.040955,337.0,NaN,3.852,27.0,353.9,18 / 18,467221,2020-03-11 10:47:17:680
3.782839,-1.120486,2.94008,0.0,49.832634,24.040955,337.0,NaN,3.852,27.0,353.9,18 / 18,467721,2020-03-11 10:47:18:180
9.198523,-1.561019,2.236184,0.0,49.832634,24.040955,337.0,NaN,3.852,27.0,353.9,18 / 18,468220,2020-03-11 10:47:18:679
10.67814,-5.434838,-1.972822,0.0,49.832634,24.040955,337.0,NaN,3.852,27.0,353.9,18 / 18,468721,2020-03-11 10:47:19:180
14.33648,-4.807557,3.232172,0.0,49.832634,24.040955,337.0,NaN,3.852,27.0,353.9,18 / 18,469221,2020-03-11 10:47:19:680
12.464214,0.435745,0.038307,0.0,49.832634,24.040955,337.0,NaN,3.852,27.0,353.9,18 / 18,469721,2020-03-11 10:47:20:180
9.533711,-1.221043,-0.593762,0.0,49.832634,24.040955,337.0,NaN,3.852,27.0,353.9,18 / 18,470220,2020-03-11 10:47:20:679
4.620809,-0.167594,0.225055,0.0,49.832634,24.040955,337.0,NaN,3.852,27.0,353.9,18 / 18,470722,2020-03-11 10:47:21:181
7.876924,-1.436521,-1.240196,0.0,49.832634,24.040955,337.0,NaN,3.852,27.0,353.9,18 / 18,471220,2020-03-11 10:47:21:679
5.78918,-0.268151,0.574608,0.0,49.832634,24.040955,337.0,NaN,3.852,27.0,353.9,18 / 18,471720,2020-03-11 10:47:22:179
4.908114,0.962469,4.122815,0.0,49.832634,24.040955,337.0,NaN,3.852,27.0,353.9,18 / 18,472221,2020-03-11 10:47:22:680
11.540052,-0.555455,3.845088,0.0,49.832634,24.040955,337.0,NaN,3.852,27.0,353.9,18 / 18,472721,2020-03-11 10:47:23:180
11.683704,-5.257667,7.70933,0.0,49.832634,24.040955,337.0,NaN,3.852,27.0,353.9,18 / 18,473220,2020-03-11 10:47:23:679
11.583148,-6.631939,6.473922,0.0,49.832634,24.040955,337.0,NaN,3.852,27.0,353.9,18 / 18,473720,2020-03-11 10:47:24:179
12.756307,1.608904,0.052672,0.0,49.832634,24.040955,337.0,NaN,3.852,27.0,353.9,18 / 18,474221,2020-03-11 10:47:24:680
7.354988,-1.460463,-1.249773,0.0,49.832634,24.040955,337.0,NaN,3.852,27.0,353.9,18 / 18,474721,2020-03-11 10:47:25:180
9.442732,0.675165,-0.09098,0.0,49.832634,24.040955,337.0,NaN,3.852,27.0,353.9,18 / 18,475220,2020-03-11 10:47:25:679
3.845088,-1.790863,0.909797,0.0,49.832634,24.040955,337.0,NaN,3.852,27.0,353.9,18 / 18,475721,2020-03-11 10:47:26:180
2.839523,-4.01747,-0.268151,0.0,49.832634,24.040955,337.0,NaN,3.852,27.0,353.9,18 / 18,476221,2020-03-11 10:47:26:680
6.44998,1.331176,1.072602,0.0,49.832634,24.040955,337.0,NaN,3.852,27.0,353.9,18 / 18,476720,2020-03-11 10:47:27:179
8.422802,-2.293645,8.719683,0.0,49.832634,24.040955,337.0,NaN,3.852,27.0,353.9,18 / 18,477221,2020-03-11 10:47:27:680
8.403648,-4.386177,3.591303,0.0,49.832634,24.040955,337.0,NaN,3.852,27.0,353.9,18 / 18,477721,2020-03-11 10:47:28:180
14.738706,1.833959,-4.491522,0.0,49.832634,24.040955,337.0,NaN,3.852,27.0,353.9,18 / 18,478220,2020-03-11 10:47:28:679
10.644621,-0.617704,-0.521936,0.0,49.832634,24.040955,337.0,NaN,3.852,27.0,353.9,18 / 18,478720,2020-03-11 10:47:29:179
12.684481,-3.462016,-2.738967,0.0,49.832634,24.040955,337.0,NaN,3.852,27.0,353.9,18 / 18,479221,2020-03-11 10:47:29:680
11.927913,1.134852,-2.221819,0.0,49.832634,24.040955,337.0,NaN,3.852,27.0,353.9,18 / 18,479721,2020-03-11 10:47:30:180
4.07972,-1.455675,1.283292,0.0,49.832634,24.040955,337.0,NaN,3.852,27.0,353.9,18 / 18,480221,2020-03-11 10:47:30:680
6.483498,-3.318364,-1.25935,0.0,49.832634,24.040955,337.0,NaN,3.852,27.0,353.9,18 / 18,480721,2020-03-11 10:47:31:180
11.425131,-4.821922,2.27928,0.0,49.832634,24.040955,337.0,NaN,3.852,27.0,353.9,18 / 18,481221,2020-03-11 10:47:31:680
4.333505,-6.119579,3.399767,0.0,49.832634,24.040955,337.0,NaN,3.852,27.0,353.9,18 / 18,481720,2020-03-11 10:47:32:179
12.325351,1.335965,0.301669,0.0,49.832634,24.040955,337.0,NaN,3.852,27.0,353.9,18 / 18,482220,2020-03-11 10:47:32:679
11.573571,-2.959233,-1.321599,0.0,49.832634,24.040955,337.0,NaN,3.852,27.0,353.9,18 / 18,482721,2020-03-11 10:47:33:180
12.909535,1.029507,0.536301,0.0,49.832634,24.040955,337.0,NaN,3.852,27.0,353.9,18 / 18,483221,2020-03-11 10:47:33:680
10.769119,-1.316811,-1.484405,0.0,49.832634,24.040955,337.0,NaN,3.852,27.0,353.9,18 / 18,483720,2020-03-11 10:47:34:179
6.622362,-0.033519,0.435745,0.0,49.832634,24.040955,337.0,NaN,3.852,27.0,353.9,18 / 18,484221,2020-03-11 10:47:34:680
4.951209,0.268151,2.70066,0.0,49.832634,24.040955,337.0,NaN,3.852,27.0,353.9,18 / 18,484721,2020-03-11 10:47:35:180
9.572019,-0.804452,3.859453,0.0,49.832634,24.040955,337.0,NaN,3.852,27.0,353.9,18 / 18,485220,2020-03-11 10:47:35:679
10.208876,-5.090072,8.882488,0.0,49.832634,24.040955,337.0,NaN,3.852,27.0,353.9,18 / 18,485721,2020-03-11 10:47:36:180
12.148179,-5.583278,4.295198,0.0,49.832634,24.040955,337.0,NaN,3.852,27.0,353.9,18 / 18,486221,2020-03-11 10:47:36:680
13.441049,0.885855,1.666364,0.0,49.832634,24.040955,337.0,NaN,3.852,27.0,353.9,18 / 18,486720,2020-03-11 10:47:37:179
6.291962,-5.310339,1.426944,0.0,49.832634,24.040955,337.0,NaN,3.852,27.0,353.9,18 / 18,487221,2020-03-11 10:47:37:680
13.503298,0.517148,0.995988,0.0,49.832634,24.040955,337.0,NaN,3.852,27.0,353.9,18 / 18,487721,2020-03-11 10:47:38:180
13.263878,-4.601655,0.110133,0.0,49.832634,24.040955,337.0,NaN,3.852,27.0,353.9,18 / 18,488221,2020-03-11 10:47:38:680
8.542512,0.474052,0.531513,0.0,49.832634,24.040955,337.0,NaN,3.852,27.0,353.9,18 / 18,488721,2020-03-11 10:47:39:180
2.70066,-2.006341,1.182736,0.0,49.832634,24.040955,337.0,NaN,3.852,27.0,353.9,18 / 18,489220,2020-03-11 10:47:39:679
8.001422,-2.561796,-0.54109,0.0,49.832634,24.040955,337.0,NaN,3.852,27.0,353.9,18 / 18,489721,2020-03-11 10:47:40:180
12.378023,-4.821922,1.790863,0.0,49.832634,24.040955,337.0,NaN,3.852,27.0,353.9,18 / 18,490221,2020-03-11 10:47:40:680
5.415684,-3.797204,4.826711,0.0,49.832634,24.040955,337.0,NaN,3.852,27.0,353.9,18 / 18,490720,2020-03-11 10:47:41:179
14.642938,-0.852336,0.751779,0.0,49.832634,24.040955,337.0,NaN,3.852,27.0,353.9,18 / 18,491221,2020-03-11 10:47:41:680
4.041412,-3.117251,2.475605,0.0,49.832634,24.040955,337.0,NaN,3.852,27.0,353.9,18 / 18,491721,2020-03-11 10:47:42:180
15.86398,-1.757344,0.847547,0.0,49.832634,24.040955,337.0,NaN,3.852,27.0,353.9,18 / 18,492220,2020-03-11 10:47:42:679
13.670892,-3.404555,-3.730166,0.0,49.832634,24.040955,337.0,NaN,3.852,27.0,353.9,18 / 18,492720,2020-03-11 10:47:43:179
10.67814,0.775721,-2.154781,0.0,49.832634,24.040955,337.0,NaN,3.852,27.0,353.9,18 / 18,493221,2020-03-11 10:47:43:680
5.995081,-2.102109,0.651223,0.0,49.832634,24.040955,337.0,NaN,3.852,27.0,353.9,18 / 18,493721,2020-03-11 10:47:44:180
4.774039,-1.206678,0.225055,0.0,49.832634,24.040955,337.0,NaN,3.852,27.0,353.9,18 / 18,494221,2020-03-11 10:47:44:680
10.505757,-0.196325,-0.277727,0.0,49.832634,24.040955,337.0,NaN,3.852,27.0,353.9,18 / 18,494720,2020-03-11 10:47:45:179
11.568783,-2.63841,9.595961,0.0,49.832634,24.040955,337.0,NaN,3.852,27.0,353.9,18 / 18,495220,2020-03-11 10:47:45:679
10.453085,0.445322,-2.178723,0.0,49.832634,24.040955,337.0,NaN,3.852,27.0,353.9,18 / 18,495721,2020-03-11 10:47:46:180
8.901642,-1.843535,8.001422,0.0,49.832634,24.040955,337.0,NaN,3.852,27.0,353.9,18 / 18,496221,2020-03-11 10:47:46:680
13.900735,-0.857124,-0.656011,0.0,49.832634,24.040955,337.0,NaN,3.852,27.0,353.9,18 / 18,496721,2020-03-11 10:47:47:180
13.158532,-1.771709,-4.022259,0.0,49.832634,24.040955,337.0,NaN,3.852,27.0,353.9,18 / 18,497220,2020-03-11 10:47:47:679
10.702082,1.56102,-2.5187,0.0,49.832634,24.040955,337.0,NaN,3.852,27.0,353.9,18 / 18,497721,2020-03-11 10:47:48:180
6.200983,-2.715025,0.067038,0.0,49.832634,24.040955,337.0,NaN,3.852,27.0,353.9,18 / 18,498221,2020-03-11 10:47:48:680
5.741296,-2.183512,-1.436521,0.0,49.832634,24.040955,337.0,NaN,3.852,27.0,353.9,18 / 18,498720,2020-03-11 10:47:49:179
9.346964,1.661576,-1.312023,0.0,49.832634,24.040955,337.0,NaN,3.852,27.0,353.9,18 / 18,499220,2020-03-11 10:47:49:679
4.587291,-0.909797,-0.220267,0.0,49.832634,24.040955,337.0,NaN,3.852,27.0,353.9,18 / 18,499720,2020-03-11 10:47:50:179
7.656657,1.460463,0.545878,0.0,49.832634,24.040955,337.0,NaN,3.852,27.0,353.9,18 / 18,500221,2020-03-11 10:47:50:680
8.925584,-2.54743,7.70933,0.0,49.832634,24.040955,337.0,NaN,3.852,27.0,353.9,18 / 18,500721,2020-03-11 10:47:51:180
9.346964,-4.697424,13.101071,0.0,49.832634,24.040955,337.0,NaN,3.852,27.0,353.9,18 / 18,501220,2020-03-11 10:47:51:679
16.807297,-4.098873,5.233725,0.0,49.832634,24.040955,337.0,NaN,3.852,27.0,353.9,18 / 18,501720,2020-03-11 10:47:52:179
12.014104,1.719037,1.249773,0.0,49.832634,24.040955,337.0,NaN,3.852,27.0,353.9,18 / 18,502221,2020-03-11 10:47:52:680
8.317456,-1.436521,-0.632069,0.0,49.832634,24.040955,337.0,NaN,3.852,27.0,353.9,18 / 18,502721,2020-03-11 10:47:53:180
5.736508,0.148441,0.09098,0.0,49.832634,24.040955,337.0,NaN,3.852,27.0,353.9,18 / 18,503220,2020-03-11 10:47:53:679
7.795521,-2.264915,-0.962469,0.0,49.832634,24.040955,337.0,NaN,3.852,27.0,353.9,18 / 18,503721,2020-03-11 10:47:54:180
5.114015,-0.68953,0.675165,0.0,49.832634,24.040955,337.0,NaN,3.852,27.0,353.9,18 / 18,504220,2020-03-11 10:47:54:679
6.258444,1.201889,2.695871,0.0,49.832634,24.040955,337.0,NaN,3.852,27.0,353.9,18 / 18,504720,2020-03-11 10:47:55:179
10.070012,-1.254562,5.650316,0.0,49.832634,24.040955,337.0,NaN,3.852,27.0,353.9,18 / 18,505220,2020-03-11 10:47:55:679
9.366117,-4.122815,7.94875,0.0,49.832634,24.040955,337.0,NaN,3.852,27.0,353.9,18 / 18,505721,2020-03-11 10:47:56:180
15.342045,-0.991199,-0.11971,0.0,49.832634,24.040955,337.0,NaN,3.852,27.0,353.9,18 / 18,506220,2020-03-11 10:47:56:679
10.390836,3.495535,3.117251,0.0,49.832634,24.040955,337.0,NaN,3.852,27.0,353.9,18 / 18,506721,2020-03-11 10:47:57:180
8.734048,-1.25935,-0.248997,0.0,49.832634,24.040955,337.0,NaN,3.852,27.0,353.9,18 / 18,507221,2020-03-11 10:47:57:680
11.089942,3.883395,2.418144,0.0,49.832634,24.040955,337.0,NaN,3.852,27.0,353.9,18 / 18,507720,2020-03-11 10:47:58:179
8.738836,0.454898,-0.895431,0.0,49.832634,24.040955,337.0,NaN,3.852,27.0,353.9,18 / 18,508221,2020-03-11 10:47:58:680
6.50744,-0.153229,0.225055,0.0,49.832634,24.040955,337.0,NaN,3.852,27.0,353.9,18 / 18,508721,2020-03-11 10:47:59:180
4.946421,1.106121,3.241749,0.0,49.832634,24.040955,337.0,NaN,3.852,27.0,353.9,18 / 18,509220,2020-03-11 10:47:59:679
11.166556,-1.335964,9.749189,0.0,49.832634,24.040955,337.0,NaN,3.852,27.0,353.9,18 / 18,509720,2020-03-11 10:48:00:179
9.916783,-2.044648,7.388507,0.0,49.832634,24.040955,337.0,NaN,3.852,27.0,353.9,0 / 0,510221,2020-03-11 10:48:00:680
16.275784,0.363919,-1.474828,0.0,49.832634,24.040955,337.0,NaN,3.852,27.0,353.9,0 / 0,510721,2020-03-11 10:48:01:180
11.985373,2.049437,0.656011,0.0,49.832634,24.040955,337.0,NaN,3.852,27.0,353.9,0 / 0,511220,2020-03-11 10:48:01:679
16.721106,1.489194,-2.197877,0.0,49.832634,24.040955,337.0,NaN,3.852,27.0,353.9,0 / 3,511720,2020-03-11 10:48:02:179
