ACCELEROMETER X (m/s²),ACCELEROMETER Y (m/s²),ACCELEROMETER Z (m/s²),PROXIMITY (m),LOCATION Latitude : ,LOCATION Longitude : ,LOCATION Altitude ( m),LOCATION Altitude-google ( m),LOCATION Speed ( Kmh),LOCATION Accuracy ( m),LOCATION ORIENTATION (°),Satellites in range,Time since start in ms ,YYYY-MO-DD HH-MI-SS_SSS
-0.905008,3.916914,8.432379,8.0,,,,NaN,,,,8 / 8,33,2020-03-15 11:51:04:277
8.652645,-2.983175,3.8403,8.0,49.839344,24.020502,315.0,NaN,3.204,14.0,0.0,8 / 8,532,2020-03-15 11:51:04:776
7.675811,-1.632845,1.479617,8.0,49.839344,24.020502,315.0,NaN,3.204,14.0,0.0,8 / 8,1033,2020-03-15 11:51:05:277
7.225701,-2.178723,1.278504,8.0,49.839344,24.020502,315.0,NaN,3.204,14.0,0.0,8 / 8,1532,2020-03-15 11:51:05:776
14.058752,-3.806781,-0.191536,8.0,49.839344,24.020502,315.0,NaN,3.204,14.0,0.0,8 / 8,2032,2020-03-15 11:51:06:276
13.972561,-3.136404,-1.039083,8.0,49.839344,24.020502,315.0,NaN,3.204,14.0,0.0,8 / 8,2532,2020-03-15 11:51:06:776
6.66067,-5.224148,-0.047884,8.0,49.839344,24.020502,315.0,NaN,3.204,14.0,0.0,8 / 8,3032,2020-03-15 11:51:07:276
18.53112,-4.22816,-0.517148,8.0,49.839344,24.020502,315.0,NaN,3.204,14.0,0.0,8 / 8,3532,2020-03-15 11:51:07:776
6.943185,-3.979163,0.397437,8.0,49.839344,24.020502,315.0,NaN,3.204,14.0,0.0,8 / 8,4032,2020-03-15 11:51:08:276
5.353435,-0.952892,-1.872266,8.0,49.839344,24.020502,315.0,NaN,3.204,14.0,0.0,8 / 8,4532,2020-03-15 11:51:08:776
8.341399,-1.273715,0.842759,8.0,49.839344,24.020502,315.0,NaN,3.204,14.0,0.0,8 / 8,5032,2020-03-15 11:51:09:276
10.223241,0.344765,-0.220267,8.0,49.839344,24.020502,315.0,NaN,3.204,14.0,0.0,8 / 8,5532,2020-03-15 11:51:09:776
11.640609,-5.176264,-0.593762,8.0,49.839344,24.020502,315.0,NaN,3.204,14.0,0.0,8 / 8,6032,2020-03-15 11:51:10:276
9.811439,-4.405331,-0.220267,8.0,49.839344,24.020502,315.0,NaN,3.204,14.0,0.0,8 / 8,6532,2020-03-15 11:51:10:776
10.414778,-2.686294,-0.339977,8.0,49.839344,24.020502,315.0,NaN,3.204,14.0,0.0,8 / 8,7032,2020-03-15 11:51:11:276
6.947974,-2.580949,0.172383,8.0,49.839344,24.020502,315.0,NaN,3.204,14.0,0.0,8 / 8,7532,2020-03-15 11:51:11:776
11.429919,-3.816357,-1.61848,8.0,49.839344,24.020502,315.0,NaN,3.204,14.0,0.0,8 / 8,8032,2020-03-15 11:51:12:276
11.15698,-4.553771,-0.56982,8.0,49.839344,24.020502,315.0,NaN,3.204,14.0,0.0,8 / 8,8532,2020-03-15 11:51:12:776
5.741296,-5.233725,0.268151,8.0,49.839344,24.020502,315.0,NaN,3.204,14.0,0.0,8 / 8,9032,2020-03-15 11:51:13:276
14.149732,-2.619257,-1.340753,8.0,49.839344,24.020502,315.0,NaN,3.204,14.0,0.0,8 / 8,9532,2020-03-15 11:51:13:776
5.635951,-3.074155,-0.416591,8.0,49.839344,24.020502,315.0,NaN,3.204,14.0,0.0,8 / 8,10032,2020-03-15 11:51:14:276
6.253655,-0.641646,0.766145,8.0,49.839344,24.020502,315.0,NaN,3.204,14.0,0.0,8 / 8,10532,2020-03-15 11:51:14:776
9.677363,-3.572149,0.153229,8.0,49.839344,24.020502,315.0,NaN,3.204,14.0,0.0,8 / 8,11032,2020-03-15 11:51:15:276
10.295067,-3.351882,-0.560243,8.0,49.839344,24.020502,315.0,NaN,3.204,14.0,0.0,8 / 8,11532,2020-03-15 11:51:15:776
13.417107,-4.687847,-0.445322,8.0,49.839344,24.020502,315.0,NaN,3.204,14.0,0.0,8 / 8,12032,2020-03-15 11:51:16:276
6.344635,-3.409343,-0.948104,8.0,49.839344,24.020502,315.0,NaN,3.204,14.0,0.0,8 / 8,12532,2020-03-15 11:51:16:776
6.574478,-0.857124,-1.939303,8.0,49.839344,24.020502,315.0,NaN,3.204,14.0,0.0,8 / 8,13032,2020-03-15 11:51:17:276
6.665458,-2.298433,1.407791,8.0,49.839344,24.020502,315.0,NaN,3.204,14.0,0.0,8 / 8,13532,2020-03-15 11:51:17:776
7.963115,-0.469264,-0.751779,8.0,49.839344,24.020502,315.0,NaN,3.204,14.0,0.0,8 / 8,14032,2020-03-15 11:51:18:276
11.219229,-4.553771,-0.890643,8.0,49.839344,24.020502,315.0,NaN,3.204,14.0,0.0,8 / 8,14532,2020-03-15 11:51:18:776
11.420342,-3.711012,-1.125275,8.0,49.839344,24.020502,315.0,NaN,3.204,14.0,0.0,8 / 8,15032,2020-03-15 11:51:19:276
13.455414,-4.247314,-1.072602,8.0,49.839344,24.020502,315.0,NaN,3.204,14.0,0.0,8 / 8,15532,2020-03-15 11:51:19:776
4.97994,-2.63841,-0.138864,8.0,49.839344,24.020502,315.0,NaN,3.204,14.0,0.0,8 / 8,16032,2020-03-15 11:51:20:276
6.493075,-0.47884,0.392649,8.0,49.839344,24.020502,315.0,NaN,3.204,14.0,0.0,8 / 8,16531,2020-03-15 11:51:20:775
10.089166,-4.841076,-0.593762,8.0,49.839344,24.020502,315.0,NaN,3.204,14.0,0.0,8 / 8,17031,2020-03-15 11:51:21:275
11.061212,-1.010353,-0.952892,8.0,49.839344,24.020502,315.0,NaN,3.204,14.0,0.0,8 / 8,17532,2020-03-15 11:51:21:776
12.315774,-2.37026,-0.68953,8.0,49.839344,24.020502,315.0,NaN,3.204,14.0,0.0,8 / 8,18032,2020-03-15 11:51:22:276
9.911995,-5.406107,-1.450886,8.0,49.839344,24.020502,315.0,NaN,3.204,14.0,0.0,8 / 8,18532,2020-03-15 11:51:22:776
9.950302,-2.245761,-0.272939,8.0,49.839344,24.020502,315.0,NaN,3.204,14.0,0.0,8 / 8,19032,2020-03-15 11:51:23:276
5.276821,-2.643199,0.42138,8.0,49.839344,24.020502,315.0,NaN,3.204,14.0,0.0,8 / 8,19532,2020-03-15 11:51:23:776
8.815451,-0.402226,-0.972046,8.0,49.839344,24.020502,315.0,NaN,3.204,14.0,0.0,8 / 8,20032,2020-03-15 11:51:24:276
12.392388,-2.806004,-1.297657,8.0,49.839344,24.020502,315.0,NaN,3.204,14.0,0.0,8 / 8,20532,2020-03-15 11:51:24:776
7.364565,-3.907337,-1.37906,8.0,49.839344,24.020502,315.0,NaN,3.204,14.0,0.0,8 / 8,21032,2020-03-15 11:51:25:276
11.664551,-3.983951,0.172383,8.0,49.839344,24.020502,315.0,NaN,3.204,14.0,0.0,8 / 8,21532,2020-03-15 11:51:25:776
7.350199,-5.190629,0.608127,8.0,49.839344,24.020502,315.0,NaN,3.204,14.0,0.0,8 / 8,22032,2020-03-15 11:51:26:276
9.165004,-1.115698,-0.344765,8.0,49.839344,24.020502,315.0,NaN,3.204,14.0,0.0,8 / 8,22532,2020-03-15 11:51:26:776
5.81791,-2.834735,0.646435,8.0,49.839344,24.020502,315.0,NaN,3.204,14.0,0.0,8 / 8,23031,2020-03-15 11:51:27:275
11.908759,-1.04866,-3.29921,8.0,49.839344,24.020502,315.0,NaN,3.204,14.0,0.0,8 / 8,23532,2020-03-15 11:51:27:776
13.254301,-2.724601,-0.622492,8.0,49.839344,24.020502,315.0,NaN,3.204,14.0,0.0,8 / 8,24032,2020-03-15 11:51:28:276
10.606314,-5.865794,-0.134075,8.0,49.839344,24.020502,315.0,NaN,3.204,14.0,0.0,8 / 8,24532,2020-03-15 11:51:28:776
9.868899,-1.565808,-0.191536,8.0,49.839344,24.020502,315.0,NaN,3.204,14.0,0.0,8 / 8,25032,2020-03-15 11:51:29:276
5.88016,-3.883395,-0.679953,8.0,49.839344,24.020502,315.0,NaN,3.204,14.0,0.0,8 / 8,25532,2020-03-15 11:51:29:776
5.961562,-1.01993,-0.502782,8.0,49.839344,24.020502,315.0,NaN,3.204,14.0,0.0,8 / 8,26032,2020-03-15 11:51:30:276
10.34774,-3.385401,-0.177171,8.0,49.839344,24.020502,315.0,NaN,3.204,14.0,0.0,8 / 8,26531,2020-03-15 11:51:30:775
13.517663,-3.576937,-1.374272,8.0,49.839344,24.020502,315.0,NaN,3.204,14.0,0.0,8 / 8,27031,2020-03-15 11:51:31:275
13.000515,-4.697424,-1.302446,8.0,49.839344,24.020502,315.0,NaN,3.204,14.0,0.0,8 / 8,27531,2020-03-15 11:51:31:775
6.574478,-3.452439,-0.924162,8.0,49.839344,24.020502,315.0,NaN,3.204,14.0,0.0,8 / 8,28031,2020-03-15 11:51:32:275
6.14831,0.502782,-0.890643,8.0,49.839344,24.020502,315.0,NaN,3.204,14.0,0.0,8 / 8,28531,2020-03-15 11:51:32:775
9.275137,-3.102885,-0.306458,8.0,49.839344,24.020502,315.0,NaN,3.204,14.0,0.0,8 / 8,29032,2020-03-15 11:51:33:276
6.78038,-0.186748,1.254562,8.0,49.839344,24.020502,315.0,NaN,3.204,14.0,0.0,8 / 8,29532,2020-03-15 11:51:33:776
12.770672,-3.864241,-1.661576,8.0,49.839344,24.020502,315.0,NaN,3.204,14.0,0.0,8 / 8,30032,2020-03-15 11:51:34:276
16.4338,-6.033388,-6.335057,8.0,49.839344,24.020502,315.0,NaN,3.204,14.0,0.0,8 / 8,30532,2020-03-15 11:51:34:776
13.10586,-3.605668,0.134075,0.0,49.839344,24.020502,315.0,NaN,3.204,14.0,0.0,8 / 8,31032,2020-03-15 11:51:35:276
6.373365,-2.341529,-2.245761,0.0,49.839344,24.020502,315.0,NaN,3.204,14.0,0.0,8 / 8,31532,2020-03-15 11:51:35:776
1.125275,-7.053318,-1.752556,0.0,49.839344,24.020502,315.0,NaN,3.204,14.0,0.0,8 / 8,32032,2020-03-15 11:51:36:276
1.182736,-10.520123,-4.352658,0.0,49.839344,24.020502,315.0,NaN,3.204,14.0,0.0,8 / 8,32532,2020-03-15 11:51:36:776
5.573702,-6.909666,1.508347,0.0,49.839344,24.020502,315.0,NaN,3.204,14.0,0.0,8 / 8,33032,2020-03-15 11:51:37:276
3.490746,-5.329493,10.907983,0.0,49.839344,24.020502,315.0,NaN,3.204,14.0,0.0,8 / 8,33532,2020-03-15 11:51:37:776
12.957419,-7.814674,-1.340753,0.0,49.839344,24.020502,315.0,NaN,3.204,14.0,0.0,8 / 8,34032,2020-03-15 11:51:38:276
15.08347,-14.326903,-18.363527,0.0,49.839344,24.020502,315.0,NaN,3.204,14.0,0.0,8 / 8,34532,2020-03-15 11:51:38:776
4.43885,-5.463568,2.355895,0.0,49.839344,24.020502,315.0,NaN,3.204,14.0,0.0,8 / 8,35032,2020-03-15 11:51:39:276
4.055778,-3.011906,2.154782,0.0,49.839344,24.020502,315.0,NaN,3.204,14.0,0.0,8 / 8,35532,2020-03-15 11:51:39:776
15.05474,-5.33907,5.12838,0.0,49.839344,24.020502,315.0,NaN,3.204,14.0,0.0,8 / 8,36032,2020-03-15 11:51:40:276
8.480263,-10.28549,-5.24809,0.0,49.839344,24.020502,315.0,NaN,3.204,14.0,0.0,8 / 8,36532,2020-03-15 11:51:40:776
10.697293,-6.066907,-5.535394,0.0,49.839344,24.020502,315.0,NaN,3.204,14.0,0.0,8 / 8,37031,2020-03-15 11:51:41:275
10.01734,-8.192958,0.775721,0.0,49.839344,24.020502,315.0,NaN,3.204,14.0,0.0,8 / 8,37531,2020-03-15 11:51:41:775
2.413355,-6.406883,-5.722142,0.0,49.839344,24.020502,315.0,NaN,3.204,14.0,0.0,8 / 8,38031,2020-03-15 11:51:42:275
10.275913,-4.084508,0.56982,0.0,49.839344,24.020502,315.0,NaN,3.204,14.0,0.0,8 / 8,38531,2020-03-15 11:51:42:775
9.787497,-14.867992,3.926491,0.0,49.839344,24.020502,315.0,NaN,3.204,14.0,0.0,8 / 8,39032,2020-03-15 11:51:43:276
8.662222,-10.668563,-6.339846,0.0,49.839344,24.020502,315.0,NaN,3.204,14.0,0.0,8 / 8,39532,2020-03-15 11:51:43:776
11.923124,-5.875371,-1.561019,0.0,49.839344,24.020502,315.0,NaN,3.204,14.0,0.0,8 / 8,40032,2020-03-15 11:51:44:276
0.311246,-2.494758,-0.229843,0.0,49.839344,24.020502,315.0,NaN,3.204,14.0,0.0,8 / 8,40532,2020-03-15 11:51:44:776
3.529053,-7.211335,0.004788,0.0,49.839344,24.020502,315.0,NaN,3.204,14.0,0.0,8 / 8,41032,2020-03-15 11:51:45:276
10.113108,-7.805097,-11.271901,0.0,49.839344,24.020502,315.0,NaN,3.204,14.0,0.0,8 / 8,41532,2020-03-15 11:51:45:776
4.568137,-5.233725,-1.719037,0.0,49.839344,24.020502,315.0,NaN,3.204,14.0,0.0,8 / 8,42032,2020-03-15 11:51:46:276
6.205771,-7.73806,2.389413,0.0,49.839344,24.020502,315.0,NaN,3.204,14.0,0.0,8 / 8,42532,2020-03-15 11:51:46:776
5.985504,-4.975151,16.64449,0.0,49.839344,24.020502,315.0,NaN,3.204,14.0,0.0,8 / 8,43032,2020-03-15 11:51:47:276
11.142614,-9.859323,-1.838747,0.0,49.839344,24.020502,315.0,NaN,3.204,14.0,0.0,8 / 8,43532,2020-03-15 11:51:47:776
10.711658,-14.944607,-16.366762,0.0,49.839344,24.020502,315.0,NaN,3.204,14.0,0.0,8 / 8,44031,2020-03-15 11:51:48:275
3.739743,-6.397307,3.064578,0.0,49.839344,24.020502,315.0,NaN,3.204,14.0,0.0,8 / 8,44532,2020-03-15 11:51:48:776
6.110003,-4.577713,1.192313,0.0,49.839344,24.020502,315.0,NaN,3.204,14.0,0.0,8 / 8,45032,2020-03-15 11:51:49:276
8.250419,-3.931279,-0.426168,0.0,49.839344,24.020502,315.0,NaN,3.204,14.0,0.0,8 / 8,45532,2020-03-15 11:51:49:776
7.082049,-9.725247,-1.987187,0.0,49.839344,24.020502,315.0,NaN,3.204,14.0,0.0,8 / 8,46032,2020-03-15 11:51:50:276
-8.365341,-7.350199,-4.098873,0.0,49.839344,24.020502,315.0,NaN,3.204,14.0,0.0,8 / 8,46531,2020-03-15 11:51:50:775
10.615891,-10.773908,-0.775721,0.0,49.839344,24.020502,315.0,NaN,3.204,14.0,0.0,8 / 8,47032,2020-03-15 11:51:51:276
8.001422,-13.517663,-12.492945,0.0,49.839344,24.020502,315.0,NaN,3.204,14.0,0.0,8 / 8,47532,2020-03-15 11:51:51:776
4.587291,-8.499416,0.162806,0.0,49.839344,24.020502,315.0,NaN,3.204,14.0,0.0,8 / 8,48032,2020-03-15 11:51:52:276
1.25935,-2.456451,2.054225,0.0,49.839344,24.020502,315.0,NaN,3.204,14.0,0.0,8 / 8,48532,2020-03-15 11:51:52:776
3.964798,-7.000645,-3.840299,0.0,49.839344,24.020502,315.0,NaN,3.204,14.0,0.0,8 / 8,49032,2020-03-15 11:51:53:276
9.045294,-3.1795,0.972046,0.0,49.839344,24.020502,315.0,NaN,3.204,14.0,0.0,8 / 8,49532,2020-03-15 11:51:53:776
3.543419,-3.117251,7.575254,0.0,49.839344,24.020502,315.0,NaN,3.204,14.0,0.0,8 / 8,50032,2020-03-15 11:51:54:276
12.320562,-8.384495,-1.431733,0.0,49.839344,24.020502,315.0,NaN,3.204,14.0,0.0,8 / 8,50531,2020-03-15 11:51:54:775
8.628703,-10.97502,-10.965444,0.0,49.839344,24.020502,315.0,NaN,3.204,14.0,0.0,8 / 8,51032,2020-03-15 11:51:55:276
4.630386,-6.818686,1.719037,0.0,49.839344,24.020502,315.0,NaN,3.204,14.0,0.0,8 / 8,51532,2020-03-15 11:51:55:776
6.962339,-3.452439,1.029507,0.0,49.839344,24.020502,315.0,NaN,3.204,14.0,0.0,8 / 8,52032,2020-03-15 11:51:56:276
17.314869,-13.503298,4.88896,0.0,49.839344,24.020502,315.0,NaN,3.204,14.0,0.0,8 / 8,52532,2020-03-15 11:51:56:776
9.667787,-8.724471,-3.509899,0.0,49.839344,24.020502,315.0,NaN,3.204,14.0,0.0,8 / 8,53032,2020-03-15 11:51:57:276
-6.138733,-4.285621,-8.695741,0.0,49.839344,24.020502,315.0,NaN,3.204,14.0,0.0,8 / 8,53532,2020-03-15 11:51:57:776
10.055647,-10.807426,-2.595315,0.0,49.839344,24.020502,315.0,NaN,3.204,14.0,0.0,8 / 8,54032,2020-03-15 11:51:58:276
7.541735,-8.949526,-10.0748,0.0,49.839344,24.020502,315.0,NaN,3.204,14.0,0.0,8 / 8,54531,2020-03-15 11:51:58:775
3.543419,-6.828263,1.580173,0.0,49.839344,24.020502,315.0,NaN,3.204,14.0,0.0,8 / 8,55032,2020-03-15 11:51:59:276
6.78038,-3.026271,2.389413,0.0,49.839344,24.020502,315.0,NaN,3.204,14.0,0.0,8 / 8,55532,2020-03-15 11:51:59:776
18.286913,-11.693281,-0.325611,0.0,49.839344,24.020502,315.0,NaN,3.204,14.0,0.0,8 / 8,56032,2020-03-15 11:52:00:276
7.096414,-9.691729,-3.500323,0.0,49.839344,24.020502,315.0,NaN,3.204,14.0,0.0,8 / 8,56532,2020-03-15 11:52:00:776
7.963115,-7.307103,-8.51857,0.0,49.839344,24.020502,315.0,NaN,3.204,14.0,0.0,8 / 8,57031,2020-03-15 11:52:01:275
7.043741,-9.734824,-1.355118,0.0,49.839344,24.020502,315.0,NaN,3.204,14.0,0.0,8 / 8,57532,2020-03-15 11:52:01:776
7.536947,-4.932055,-12.215217,0.0,49.839344,24.020502,315.0,NaN,3.204,14.0,0.0,8 / 8,58032,2020-03-15 11:52:02:276
5.334282,-5.453991,-1.939303,0.0,49.839344,24.020502,315.0,NaN,3.204,14.0,0.0,8 / 8,58532,2020-03-15 11:52:02:776
8.06846,-7.402871,3.883395,0.0,49.839344,24.020502,315.0,NaN,3.204,14.0,0.0,8 / 8,59032,2020-03-15 11:52:03:276
4.103662,-3.936067,21.466412,0.0,49.839344,24.020502,315.0,NaN,3.204,14.0,0.0,8 / 8,59532,2020-03-15 11:52:03:776
7.752425,-9.509769,0.383072,0.0,49.839344,24.020502,315.0,NaN,3.204,14.0,0.0,8 / 8,60031,2020-03-15 11:52:04:275
3.256114,-4.486734,-2.351106,0.0,49.839344,24.020502,315.0,NaN,3.204,14.0,0.0,8 / 8,60532,2020-03-15 11:52:04:776
7.723695,-4.817134,-1.972822,0.0,49.839344,24.020502,315.0,NaN,3.204,14.0,0.0,8 / 8,61032,2020-03-15 11:52:05:276
-0.186748,-3.485957,1.73819,0.0,49.839344,24.020502,315.0,NaN,3.204,14.0,0.0,8 / 8,61532,2020-03-15 11:52:05:776
1.082179,-8.781932,-1.043872,0.0,49.839344,24.020502,315.0,NaN,3.204,14.0,0.0,8 / 8,62032,2020-03-15 11:52:06:276
7.28795,-9.844957,-3.045424,0.0,49.839344,24.020502,315.0,NaN,3.204,14.0,0.0,8 / 8,62532,2020-03-15 11:52:06:776
7.417237,-7.661445,-6.291962,0.0,49.839344,24.020502,315.0,NaN,3.204,14.0,0.0,8 / 8,63031,2020-03-15 11:52:07:275
4.965575,-7.541735,0.402226,0.0,49.839344,24.020502,315.0,NaN,3.204,14.0,0.0,8 / 8,63532,2020-03-15 11:52:07:776
2.667141,-3.835511,1.752556,0.0,49.839344,24.020502,315.0,NaN,3.204,14.0,0.0,8 / 8,64032,2020-03-15 11:52:08:276
5.78918,-6.100425,-0.081403,0.0,49.839344,24.020502,315.0,NaN,3.204,14.0,0.0,8 / 8,64532,2020-03-15 11:52:08:776
7.283162,-9.385271,-3.98874,0.0,49.839344,24.020502,315.0,NaN,3.204,14.0,0.0,8 / 8,65031,2020-03-15 11:52:09:275
1.517924,-6.464344,-12.258312,0.0,49.839344,24.020502,315.0,NaN,3.204,14.0,0.0,8 / 8,65532,2020-03-15 11:52:09:776
8.379707,-10.702082,-0.02873,0.0,49.839344,24.020502,315.0,NaN,3.204,14.0,0.0,8 / 8,66032,2020-03-15 11:52:10:276
7.158664,-6.449979,-9.921572,0.0,49.839344,24.020502,315.0,NaN,3.204,14.0,0.0,8 / 8,66531,2020-03-15 11:52:10:775
4.865018,-5.942408,-2.097321,0.0,49.839344,24.020502,315.0,NaN,3.204,14.0,0.0,0 / 0,67032,2020-03-15 11:52:11:276
5.492299,-10.591949,5.741296,0.0,49.839344,24.020502,315.0,NaN,3.204,14.0,0.0,0 / 0,67532,2020-03-15 11:52:11:776
8.178593,-5.334281,12.77546,0.0,49.839344,24.020502,315.0,NaN,3.204,14.0,0.0,0 / 5,68032,2020-03-15 11:52:12:276
9.77792,-9.504981,2.154782,0.0,49.839344,24.020502,315.0,NaN,3.204,14.0,0.0,0 / 5,68532,2020-03-15 11:52:12:776
3.682282,-4.539406,-4.156334,0.0,49.839344,24.020502,315.0,NaN,3.204,14.0,0.0,0 / 5,69031,2020-03-15 11:52:13:275
8.805874,-4.012682,0.023942,0.0,49.839344,24.020502,315.0,NaN,3.204,14.0,0.0,0 / 5,69532,2020-03-15 11:52:13:776
1.61848,-4.965574,1.714248,0.0,49.839016,24.018959,338.0,NaN,3.024,30.499998,0.0,10 / 12,70032,2020-03-15 11:52:14:276
1.292869,-6.938396,-1.096544,0.0,49.839016,24.018959,338.0,NaN,3.024,30.499998,0.0,10 / 12,70532,2020-03-15 11:52:14:776
8.528147,-11.180922,-4.491522,0.0,49.839016,24.018959,338.0,NaN,3.024,30.499998,0.0,10 / 12,71032,2020-03-15 11:52:15:276
5.621586,-3.107674,-4.256891,0.0,49.839016,24.018959,338.0,NaN,3.024,30.499998,0.0,10 / 12,71532,2020-03-15 11:52:15:776
5.870583,-6.770802,0.608127,0.0,49.839016,24.018959,338.0,NaN,3.024,30.499998,0.0,10 / 12,72032,2020-03-15 11:52:16:276
1.972822,-3.883395,2.671929,0.0,49.839016,24.018959,338.0,NaN,3.024,30.499998,0.0,10 / 12,72532,2020-03-15 11:52:16:776
2.734178,-6.976703,-3.849876,0.0,49.839016,24.018959,338.0,NaN,3.024,30.499998,0.0,10 / 12,73032,2020-03-15 11:52:17:276
7.163452,-10.994174,1.168371,0.0,49.839016,24.018959,338.0,NaN,3.024,30.499998,0.0,10 / 12,73532,2020-03-15 11:52:17:776
8.90643,-10.395624,1.843535,0.0,49.839016,24.018959,338.0,NaN,3.024,30.499998,0.0,10 / 12,74032,2020-03-15 11:52:18:276
8.599973,-9.428367,-3.998317,0.0,49.839016,24.018959,338.0,NaN,3.024,30.499998,0.0,10 / 12,74531,2020-03-15 11:52:18:775
7.297527,-8.293514,-11.84651,0.0,49.839016,24.018959,338.0,NaN,3.024,30.499998,0.0,10 / 12,75032,2020-03-15 11:52:19:276
4.252103,-6.41646,2.705448,0.0,49.839016,24.018959,338.0,NaN,3.024,30.499998,0.0,10 / 12,75531,2020-03-15 11:52:19:775
6.517017,-4.050989,1.307234,0.0,49.839016,24.018959,338.0,NaN,3.024,30.499998,0.0,10 / 12,76032,2020-03-15 11:52:20:276
17.113754,-11.990162,1.517924,0.0,49.839016,24.018959,338.0,NaN,3.024,30.499998,0.0,10 / 12,76532,2020-03-15 11:52:20:776
11.621455,-9.150639,-3.347094,0.0,49.839016,24.018959,338.0,NaN,3.024,30.499998,0.0,10 / 12,77032,2020-03-15 11:52:21:276
11.535264,-7.264008,-6.995857,0.0,49.839016,24.018959,338.0,NaN,3.024,30.499998,0.0,10 / 12,77532,2020-03-15 11:52:21:776
9.624691,-8.312668,-0.723049,0.0,49.839016,24.018959,338.0,NaN,3.024,30.499998,0.0,10 / 12,78031,2020-03-15 11:52:22:275
0.440533,-3.265691,0.076614,0.0,49.839016,24.018959,338.0,NaN,3.024,30.499998,0.0,10 / 12,78531,2020-03-15 11:52:22:775
8.130709,-6.038176,0.665588,0.0,49.839016,24.018959,338.0,NaN,3.024,30.499998,0.0,10 / 12,79032,2020-03-15 11:52:23:276
7.450756,-13.977349,3.529053,0.0,49.839016,24.018959,338.0,NaN,3.024,30.499998,0.0,10 / 12,79532,2020-03-15 11:52:23:776
10.663774,-12.435484,-16.28536,0.0,49.839016,24.018959,338.0,NaN,3.024,30.499998,0.0,10 / 12,80032,2020-03-15 11:52:24:276
12.880805,-6.200982,-4.031835,0.0,49.839016,24.018959,338.0,NaN,3.024,30.499998,0.0,10 / 12,80531,2020-03-15 11:52:24:775
-0.641646,-3.696647,0.727837,0.0,49.839016,24.018959,338.0,NaN,3.024,30.499998,0.0,10 / 12,81032,2020-03-15 11:52:25:276
3.639187,-9.600749,0.814029,0.0,49.839016,24.018959,338.0,NaN,3.024,30.499998,0.0,10 / 12,81532,2020-03-15 11:52:25:776
5.382166,-13.053187,3.567361,0.0,49.839016,24.018959,338.0,NaN,3.024,30.499998,0.0,10 / 12,82032,2020-03-15 11:52:26:276
13.828909,-12.717999,-0.062249,0.0,49.839016,24.018959,338.0,NaN,3.024,30.499998,0.0,10 / 12,82532,2020-03-15 11:52:26:776
11.027693,-8.844181,-0.957681,0.0,49.839016,24.018959,338.0,NaN,3.024,30.499998,0.0,10 / 12,83031,2020-03-15 11:52:27:275
5.506664,-9.476251,-9.121908,0.0,49.839016,24.018959,338.0,NaN,3.024,30.499998,0.0,10 / 12,83532,2020-03-15 11:52:27:776
4.113238,-6.354211,-0.627281,0.0,49.839016,24.018959,338.0,NaN,3.024,30.499998,0.0,10 / 12,84032,2020-03-15 11:52:28:276
8.413225,-6.775591,0.397437,0.0,49.839016,24.018959,338.0,NaN,3.024,30.499998,0.0,10 / 12,84532,2020-03-15 11:52:28:776
4.328717,-5.832275,8.590396,0.0,49.839016,24.018959,338.0,NaN,3.024,30.499998,0.0,10 / 12,85032,2020-03-15 11:52:29:276
9.260772,-12.023681,-0.656011,0.0,49.839016,24.018959,338.0,NaN,3.024,30.499998,0.0,10 / 12,85532,2020-03-15 11:52:29:776
11.257536,-4.984728,-6.675034,0.0,49.839016,24.018959,338.0,NaN,3.024,30.499998,0.0,10 / 12,86031,2020-03-15 11:52:30:275
4.515465,-11.281479,0.656011,0.0,49.839016,24.018959,338.0,NaN,3.024,30.499998,0.0,10 / 12,86532,2020-03-15 11:52:30:776
2.06859,-3.773262,-1.077391,0.0,49.839016,24.018959,338.0,NaN,3.024,30.499998,0.0,10 / 12,87032,2020-03-15 11:52:31:276
3.979163,-5.803545,-1.029507,0.0,49.839016,24.018959,338.0,NaN,3.024,30.499998,0.0,10 / 12,87532,2020-03-15 11:52:31:776
2.590526,-16.481684,-1.335964,0.0,49.839016,24.018959,338.0,NaN,3.024,30.499998,0.0,10 / 12,88032,2020-03-15 11:52:32:276
-14.460979,-4.414908,-9.950302,0.0,49.839016,24.018959,338.0,NaN,3.024,30.499998,0.0,10 / 12,88532,2020-03-15 11:52:32:776
4.730943,-11.247959,0.019154,0.0,49.839016,24.018959,338.0,NaN,3.024,30.499998,0.0,10 / 12,89031,2020-03-15 11:52:33:275
-1.877054,-3.998317,2.06859,0.0,49.839016,24.018959,338.0,NaN,3.024,30.499998,0.0,10 / 12,89532,2020-03-15 11:52:33:776
6.124368,-9.169792,-1.149217,0.0,49.839016,24.018959,338.0,NaN,3.024,30.499998,0.0,10 / 12,90032,2020-03-15 11:52:34:276
2.255338,-6.119579,-1.015141,0.0,49.839016,24.018959,338.0,NaN,3.024,30.499998,0.0,10 / 12,90532,2020-03-15 11:52:34:776
3.327941,-8.537724,-0.952892,0.0,49.839016,24.018959,338.0,NaN,3.024,30.499998,0.0,10 / 12,91032,2020-03-15 11:52:35:276
7.85777,-10.769119,-0.871489,0.0,49.839016,24.018959,338.0,NaN,3.024,30.499998,0.0,10 / 12,91532,2020-03-15 11:52:35:776
3.438074,-5.109226,-4.668693,0.0,49.839016,24.018959,338.0,NaN,3.024,30.499998,0.0,10 / 12,92031,2020-03-15 11:52:36:275
7.187394,-8.039729,-0.282516,0.0,49.839016,24.018959,338.0,NaN,3.024,30.499998,0.0,10 / 12,92532,2020-03-15 11:52:36:776
1.201889,-12.138602,-2.413355,0.0,49.839016,24.018959,338.0,NaN,3.024,30.499998,0.0,10 / 12,93032,2020-03-15 11:52:37:276
8.815451,-8.197746,-7.694964,0.0,49.839016,24.018959,338.0,NaN,3.024,30.499998,0.0,10 / 12,93532,2020-03-15 11:52:37:776
2.030283,-7.790732,-0.21069,0.0,49.839016,24.018959,338.0,NaN,3.024,30.499998,0.0,10 / 12,94032,2020-03-15 11:52:38:276
0.009577,-5.142745,-1.249773,0.0,49.839016,24.018959,338.0,NaN,3.024,30.499998,0.0,10 / 12,94531,2020-03-15 11:52:38:775
1.771709,-11.353305,-2.025495,0.0,49.839016,24.018959,338.0,NaN,3.024,30.499998,0.0,10 / 12,95032,2020-03-15 11:52:39:276
7.398083,-11.15698,-0.3304,0.0,49.839016,24.018959,338.0,NaN,3.024,30.499998,0.0,10 / 12,95532,2020-03-15 11:52:39:776
2.293645,-4.903325,-1.58975,0.0,49.839016,24.018959,338.0,NaN,3.024,30.499998,0.0,10 / 12,96032,2020-03-15 11:52:40:276
3.98874,-9.935937,-1.556231,0.0,49.839016,24.018959,338.0,NaN,3.024,30.499998,0.0,10 / 12,96531,2020-03-15 11:52:40:775
0.445322,-15.98369,4.534618,0.0,49.839016,24.018959,338.0,NaN,3.024,30.499998,0.0,10 / 12,97032,2020-03-15 11:52:41:276
-11.027693,-8.307879,3.021483,0.0,49.839016,24.018959,338.0,NaN,3.024,30.499998,0.0,10 / 12,97532,2020-03-15 11:52:41:776
5.635951,-10.271125,0.177171,0.0,49.839016,24.018959,338.0,NaN,3.024,30.499998,0.0,10 / 12,98032,2020-03-15 11:52:42:276
5.0374,-3.136404,-3.945644,0.0,49.839016,24.018959,338.0,NaN,3.024,30.499998,0.0,10 / 12,98532,2020-03-15 11:52:42:776
2.671929,-9.797073,-0.153229,0.0,49.839016,24.018959,338.0,NaN,3.024,30.499998,0.0,10 / 12,99032,2020-03-15 11:52:43:276
-0.148441,-4.76925,-0.665588,0.0,49.839016,24.018959,338.0,NaN,3.024,30.499998,0.0,10 / 12,99532,2020-03-15 11:52:43:776
-0.253785,-8.853758,0.483629,0.0,49.839016,24.018959,338.0,NaN,3.024,30.499998,0.0,10 / 12,100032,2020-03-15 11:52:44:276
2.834735,-13.718776,2.063802,0.0,49.839016,24.018959,338.0,NaN,3.024,30.499998,0.0,10 / 12,100532,2020-03-15 11:52:44:776
-0.521936,-5.985504,2.15957,0.0,49.839016,24.018959,338.0,NaN,3.024,30.499998,0.0,10 / 12,101031,2020-03-15 11:52:45:275
3.768474,-12.397177,-0.986411,0.0,49.839016,24.018959,338.0,NaN,3.024,30.499998,0.0,10 / 12,101532,2020-03-15 11:52:45:776
-0.627281,-4.730942,0.560243,0.0,49.839016,24.018959,338.0,NaN,3.024,30.499998,0.0,10 / 12,102032,2020-03-15 11:52:46:276
2.197877,-8.911219,0.095768,0.0,49.839016,24.018959,338.0,NaN,3.024,30.499998,0.0,10 / 12,102531,2020-03-15 11:52:46:775
4.515465,-8.135497,0.976834,0.0,49.839016,24.018959,338.0,NaN,3.024,30.499998,0.0,10 / 12,103032,2020-03-15 11:52:47:276
7.211336,-16.931795,-19.053057,0.0,49.839016,24.018959,338.0,NaN,3.024,30.499998,0.0,10 / 12,103532,2020-03-15 11:52:47:776
4.735731,-12.722788,-1.326388,0.0,49.839016,24.018959,338.0,NaN,3.024,30.499998,0.0,10 / 12,104031,2020-03-15 11:52:48:275
2.796428,-4.477157,-2.743755,0.0,49.839016,24.018959,338.0,NaN,3.024,30.499998,0.0,10 / 12,104531,2020-03-15 11:52:48:775
4.074931,-7.40766,-1.177947,0.0,49.839016,24.018959,338.0,NaN,3.024,30.499998,0.0,10 / 12,105032,2020-03-15 11:52:49:276
0.790087,-15.658079,4.266468,0.0,49.839016,24.018959,338.0,NaN,3.024,30.499998,0.0,10 / 12,105532,2020-03-15 11:52:49:776
1.972822,-16.563087,-16.836027,0.0,49.839016,24.018959,338.0,NaN,3.024,30.499998,0.0,10 / 12,106032,2020-03-15 11:52:50:276
5.43005,-12.727576,-0.909797,0.0,49.839016,24.018959,338.0,NaN,3.024,30.499998,0.0,10 / 12,106532,2020-03-15 11:52:50:776
7.694965,-9.002198,-12.009315,0.0,49.839016,24.018959,338.0,NaN,3.024,30.499998,0.0,10 / 12,107032,2020-03-15 11:52:51:276
1.833959,-8.101978,-0.411803,0.0,49.839016,24.018959,338.0,NaN,3.024,30.499998,0.0,10 / 12,107532,2020-03-15 11:52:51:776
-0.555455,-14.298173,-0.952892,0.0,49.839016,24.018959,338.0,NaN,3.024,30.499998,0.0,10 / 12,108032,2020-03-15 11:52:52:276
0.981623,-6.895301,3.332729,0.0,49.839016,24.018959,338.0,NaN,3.024,30.499998,0.0,10 / 12,108532,2020-03-15 11:52:52:776
6.871359,-14.077906,-0.588974,0.0,49.839016,24.018959,338.0,NaN,3.024,30.499998,0.0,10 / 12,109032,2020-03-15 11:52:53:276
7.149087,-6.995857,-8.801085,0.0,49.839016,24.018959,338.0,NaN,3.024,30.499998,0.0,10 / 12,109532,2020-03-15 11:52:53:776
0.344765,-7.5561,-0.857124,0.0,49.839016,24.018959,338.0,NaN,3.024,30.499998,0.0,10 / 12,110031,2020-03-15 11:52:54:275
0.067038,-11.69807,-3.035848,0.0,49.839016,24.018959,338.0,NaN,3.024,30.499998,0.0,10 / 12,110531,2020-03-15 11:52:54:775
-1.632845,-9.552865,-0.148441,0.0,49.839016,24.018959,338.0,NaN,3.024,30.499998,0.0,10 / 12,111032,2020-03-15 11:52:55:276
2.274492,-12.401965,-4.357447,0.0,49.839016,24.018959,338.0,NaN,3.024,30.499998,0.0,10 / 12,111532,2020-03-15 11:52:55:776
8.456321,-8.686164,-8.054094,0.0,49.839016,24.018959,338.0,NaN,3.024,30.499998,0.0,10 / 12,112032,2020-03-15 11:52:56:276
3.485958,-8.394072,-0.21069,0.0,49.839016,24.018959,338.0,NaN,3.024,30.499998,0.0,10 / 12,112532,2020-03-15 11:52:56:776
2.135628,-7.283161,0.785298,0.0,49.839016,24.018959,338.0,NaN,3.024,30.499998,0.0,10 / 12,113032,2020-03-15 11:52:57:276
5.386954,-16.500837,-5.63595,0.0,49.839016,24.018959,338.0,NaN,3.024,30.499998,0.0,10 / 12,113532,2020-03-15 11:52:57:776
4.419697,-12.105083,1.005565,0.0,49.839016,24.018959,338.0,NaN,3.024,30.499998,0.0,10 / 12,114032,2020-03-15 11:52:58:276
0.469264,-6.114791,-2.676717,0.0,49.839016,24.018959,338.0,NaN,3.024,30.499998,0.0,10 / 12,114532,2020-03-15 11:52:58:776
0.857124,-8.068459,0.172383,0.0,49.839016,24.018959,338.0,NaN,3.024,30.499998,0.0,10 / 12,115031,2020-03-15 11:52:59:275
2.585738,-7.082048,-0.723049,0.0,49.839016,24.018959,338.0,NaN,3.024,30.499998,0.0,10 / 12,115532,2020-03-15 11:52:59:776
5.018247,-16.577452,6.756438,0.0,49.839016,24.018959,338.0,NaN,3.024,30.499998,0.0,10 / 12,116032,2020-03-15 11:53:00:276
4.663905,-12.717999,1.699883,0.0,49.839016,24.018959,338.0,NaN,3.024,30.499998,0.0,10 / 12,116532,2020-03-15 11:53:00:776
0.948104,-4.410119,-0.349553,0.0,49.839016,24.018959,338.0,NaN,3.024,30.499998,0.0,10 / 12,117032,2020-03-15 11:53:01:276
5.961562,-6.751649,-0.656011,0.0,49.839016,24.018959,338.0,NaN,3.024,30.499998,0.0,10 / 12,117532,2020-03-15 11:53:01:776
1.096544,-14.298173,-3.375824,0.0,49.839016,24.018959,338.0,NaN,3.024,30.499998,0.0,10 / 12,118031,2020-03-15 11:53:02:275
0.272939,5.329493,28.055256,0.0,49.839016,24.018959,338.0,NaN,3.024,30.499998,0.0,0 / 0,118532,2020-03-15 11:53:02:776
3.859453,-12.890382,-1.144428,0.0,49.839016,24.018959,338.0,NaN,3.024,30.499998,0.0,0 / 1,119032,2020-03-15 11:53:03:276
5.013459,-7.086837,-7.85777,0.0,49.839016,24.018959,338.0,NaN,3.024,30.499998,0.0,0 / 1,119532,2020-03-15 11:53:03:776
1.853112,-8.15465,0.258574,0.0,49.839016,24.018959,338.0,NaN,3.024,30.499998,0.0,0 / 4,120032,2020-03-15 11:53:04:276
4.821923,-8.815451,0.775721,0.0,49.839016,24.018959,338.0,NaN,3.024,30.499998,0.0,0 / 4,120532,2020-03-15 11:53:04:776
2.173935,-5.133168,1.699883,0.0,49.839016,24.018959,338.0,NaN,3.024,30.499998,0.0,12 / 12,121031,2020-03-15 11:53:05:275
3.849877,-13.086706,0.464475,0.0,49.839016,24.018959,338.0,NaN,3.024,30.499998,0.0,12 / 12,121532,2020-03-15 11:53:05:776
2.983175,-5.477933,-1.345541,0.0,49.83825,24.018862,322.0,NaN,3.024,12.0,105.5,15 / 16,122032,2020-03-15 11:53:06:276
5.712566,-7.402871,-0.866701,0.0,49.83825,24.018862,322.0,NaN,3.024,12.0,105.5,15 / 16,122532,2020-03-15 11:53:06:776
2.782062,-6.622362,-0.555455,0.0,49.83825,24.018862,322.0,NaN,3.024,12.0,105.5,15 / 16,123032,2020-03-15 11:53:07:276
5.027824,-10.271125,-5.602432,0.0,49.83825,24.018862,322.0,NaN,3.024,12.0,105.5,15 / 16,123532,2020-03-15 11:53:07:776
5.147534,-11.860875,-0.92895,0.0,49.83825,24.018862,322.0,NaN,3.024,12.0,105.5,15 / 16,124032,2020-03-15 11:53:08:276
6.607997,-5.851429,-7.757213,0.0,49.83825,24.018862,322.0,NaN,3.024,12.0,105.5,15 / 16,124531,2020-03-15 11:53:08:775
4.237737,-7.278373,-1.268927,0.0,49.83825,24.018862,322.0,NaN,3.024,12.0,105.5,15 / 16,125032,2020-03-15 11:53:09:276
0.794875,-15.586253,4.635175,0.0,49.83825,24.018862,322.0,NaN,3.024,12.0,105.5,15 / 16,125532,2020-03-15 11:53:09:776
5.473145,-17.266985,-22.213404,0.0,49.83825,24.018862,322.0,NaN,3.024,12.0,105.5,15 / 16,126032,2020-03-15 11:53:10:276
4.371813,-10.261548,-2.576161,0.0,49.83825,24.018862,322.0,NaN,3.024,12.0,105.5,15 / 16,126532,2020-03-15 11:53:10:776
7.781156,-7.910442,-11.224017,0.0,49.83825,24.018862,322.0,NaN,3.024,12.0,105.5,15 / 16,127032,2020-03-15 11:53:11:276
2.030283,-8.010998,-0.225055,0.0,49.83825,24.018862,322.0,NaN,3.024,12.0,105.5,15 / 16,127531,2020-03-15 11:53:11:775
1.254562,-12.842498,-0.723049,0.0,49.83825,24.018862,322.0,NaN,3.024,12.0,105.5,15 / 16,128032,2020-03-15 11:53:12:276
-11.951855,-6.483498,-0.349553,0.0,49.83825,24.018862,322.0,NaN,3.024,12.0,105.5,15 / 16,128532,2020-03-15 11:53:12:776
5.468357,-10.625467,0.09098,0.0,49.83825,24.018862,322.0,NaN,3.024,12.0,105.5,15 / 16,129032,2020-03-15 11:53:13:276
1.35033,-4.261679,-2.164358,0.0,49.83825,24.018862,322.0,NaN,3.024,12.0,105.5,15 / 16,129532,2020-03-15 11:53:13:776
4.869807,-8.796297,-0.402226,0.0,49.83825,24.018862,322.0,NaN,3.024,12.0,105.5,15 / 16,130032,2020-03-15 11:53:14:276
1.11091,-16.07467,2.571373,0.0,49.83825,24.018862,322.0,NaN,3.024,12.0,105.5,15 / 16,130531,2020-03-15 11:53:14:775
-0.038307,-7.996633,-1.024718,0.0,49.83825,24.018862,322.0,NaN,3.024,12.0,105.5,15 / 16,131032,2020-03-15 11:53:15:276
1.225831,-13.144167,-0.354342,0.0,49.83825,24.018862,322.0,NaN,3.024,12.0,105.5,15 / 16,131532,2020-03-15 11:53:15:776
6.47871,-6.440402,-3.600879,0.0,49.83825,24.018862,322.0,NaN,3.024,12.0,105.5,15 / 16,132032,2020-03-15 11:53:16:276
2.710236,-8.911219,0.756568,0.0,49.83825,24.018862,322.0,NaN,3.024,12.0,105.5,15 / 16,132531,2020-03-15 11:53:16:775
-0.641646,-5.243302,-1.623269,0.0,49.83825,24.018862,322.0,NaN,3.024,12.0,105.5,15 / 16,133032,2020-03-15 11:53:17:276
3.337517,-10.606314,-0.842759,0.0,49.83825,24.018862,322.0,NaN,3.024,12.0,105.5,15 / 16,133532,2020-03-15 11:53:17:776
2.293645,-14.283808,3.653552,0.0,49.83825,24.018862,322.0,NaN,3.024,12.0,105.5,15 / 16,134032,2020-03-15 11:53:18:276
8.719683,-14.350845,-10.936713,0.0,49.83825,24.018862,322.0,NaN,3.024,12.0,105.5,15 / 16,134532,2020-03-15 11:53:18:776
4.802769,-14.671668,-3.792415,0.0,49.83825,24.018862,322.0,NaN,3.024,12.0,105.5,15 / 16,135032,2020-03-15 11:53:19:276
9.433155,-6.900089,-10.869676,0.0,49.83825,24.018862,322.0,NaN,3.024,12.0,105.5,15 / 16,135532,2020-03-15 11:53:19:776
2.94008,-8.192958,-1.11091,0.0,49.83825,24.018862,322.0,NaN,3.024,12.0,105.5,15 / 16,136031,2020-03-15 11:53:20:275
3.773262,-9.289502,-0.483629,0.0,49.83825,24.018862,322.0,NaN,3.024,12.0,105.5,15 / 16,136532,2020-03-15 11:53:20:776
6.59842,-12.435484,-1.996764,0.0,49.83825,24.018862,322.0,NaN,3.024,12.0,105.5,15 / 16,137032,2020-03-15 11:53:21:276
5.075708,-12.061988,-0.866701,0.0,49.83825,24.018862,322.0,NaN,3.024,12.0,105.5,15 / 16,137532,2020-03-15 11:53:21:776
-0.023942,-5.741296,-2.044648,0.0,49.83825,24.018862,322.0,NaN,3.024,12.0,105.5,15 / 16,138032,2020-03-15 11:53:22:276
2.719813,-6.612785,-0.943315,0.0,49.83825,24.018862,322.0,NaN,3.024,12.0,105.5,15 / 16,138532,2020-03-15 11:53:22:776
0.301669,-4.635174,-1.01993,0.0,49.83825,24.018862,322.0,NaN,3.024,12.0,105.5,15 / 16,139031,2020-03-15 11:53:23:275
2.552219,-10.314221,-1.312023,0.0,49.83825,24.018862,322.0,NaN,3.024,12.0,105.5,15 / 16,139532,2020-03-15 11:53:23:776
2.552219,-11.851298,-4.831499,0.0,49.83825,24.018862,322.0,NaN,3.024,12.0,105.5,15 / 16,140032,2020-03-15 11:53:24:276
3.145981,-4.606444,-6.234501,0.0,49.83825,24.018862,322.0,NaN,3.024,12.0,105.5,15 / 16,140532,2020-03-15 11:53:24:776
3.260903,-8.159439,-0.694318,0.0,49.83825,24.018862,322.0,NaN,3.024,12.0,105.5,15 / 16,141032,2020-03-15 11:53:25:276
1.422156,-12.306197,-3.462016,0.0,49.83825,24.018862,322.0,NaN,3.024,12.0,105.5,15 / 16,141532,2020-03-15 11:53:25:776
8.78672,-8.983045,4.256891,0.0,49.83825,24.018862,322.0,NaN,3.024,12.0,105.5,15 / 16,142032,2020-03-15 11:53:26:276
3.854665,-12.962208,-1.37906,0.0,49.83825,24.018862,322.0,NaN,3.024,12.0,105.5,15 / 16,142532,2020-03-15 11:53:26:776
7.383718,-6.41646,-6.363788,0.0,49.83825,24.018862,322.0,NaN,3.024,12.0,105.5,15 / 16,143032,2020-03-15 11:53:27:276
3.768474,-8.322244,-1.40779,0.0,49.83825,24.018862,322.0,NaN,3.024,12.0,105.5,15 / 16,143532,2020-03-15 11:53:27:776
0.723049,-6.033388,-1.302446,0.0,49.83825,24.018862,322.0,NaN,3.024,12.0,105.5,15 / 16,144032,2020-03-15 11:53:28:276
-0.009577,-10.132261,-1.197101,0.0,49.83825,24.018862,322.0,NaN,3.024,12.0,105.5,15 / 16,144532,2020-03-15 11:53:28:776
4.836288,-14.15452,-3.940856,0.0,49.83825,24.018862,322.0,NaN,3.024,12.0,105.5,15 / 16,145031,2020-03-15 11:53:29:275
7.359776,-7.374141,-10.620679,0.0,49.83825,24.018862,322.0,NaN,3.024,12.0,105.5,15 / 16,145532,2020-03-15 11:53:29:776
2.82037,-8.465898,1.292869,0.0,49.83825,24.018862,322.0,NaN,3.024,12.0,105.5,15 / 16,146032,2020-03-15 11:53:30:276
4.285621,-8.796297,-0.837971,0.0,49.83825,24.018862,322.0,NaN,3.024,12.0,105.5,15 / 16,146531,2020-03-15 11:53:30:775
1.446098,-7.144298,-3.600879,0.0,49.83825,24.018862,322.0,NaN,3.024,12.0,105.5,15 / 16,147032,2020-03-15 11:53:31:276
0.866701,-13.201628,-1.355118,0.0,49.83825,24.018862,322.0,NaN,3.024,12.0,105.5,15 / 16,147531,2020-03-15 11:53:31:775
5.956774,-5.621585,-8.465898,0.0,49.83825,24.018862,322.0,NaN,3.024,12.0,105.5,15 / 16,148032,2020-03-15 11:53:32:276
3.62961,-8.307879,-0.656011,0.0,49.83825,24.018862,322.0,NaN,3.024,12.0,105.5,15 / 16,148532,2020-03-15 11:53:32:776
3.993528,-10.093954,-1.489193,0.0,49.83825,24.018862,322.0,NaN,3.024,12.0,105.5,15 / 16,149032,2020-03-15 11:53:33:276
7.94875,-11.243171,12.090718,0.0,49.83825,24.018862,322.0,NaN,3.024,12.0,105.5,15 / 16,149531,2020-03-15 11:53:33:775
4.960786,-10.577583,-1.206678,0.0,49.83825,24.018862,322.0,NaN,3.024,12.0,105.5,15 / 16,150031,2020-03-15 11:53:34:275
-1.537077,-4.19943,0.59855,0.0,49.83825,24.018862,322.0,NaN,3.024,12.0,105.5,15 / 16,150532,2020-03-15 11:53:34:776
1.819593,-8.413225,1.106121,0.0,49.83825,24.018862,322.0,NaN,3.024,12.0,105.5,15 / 16,151031,2020-03-15 11:53:35:275
4.515465,-7.733271,0.004788,0.0,49.83825,24.018862,322.0,NaN,3.024,12.0,105.5,15 / 16,151532,2020-03-15 11:53:35:776
6.186618,-11.008539,1.130063,0.0,49.83825,24.018862,322.0,NaN,3.024,12.0,105.5,15 / 16,152032,2020-03-15 11:53:36:276
4.572925,-12.29662,0.90022,0.0,49.83825,24.018862,322.0,NaN,3.024,12.0,105.5,15 / 16,152532,2020-03-15 11:53:36:776
3.026271,-3.86903,-4.630386,0.0,49.83825,24.018862,322.0,NaN,3.024,12.0,105.5,15 / 16,153032,2020-03-15 11:53:37:276
2.782062,-7.541735,-0.751779,0.0,49.83825,24.018862,322.0,NaN,3.024,12.0,105.5,15 / 16,153531,2020-03-15 11:53:37:775
1.556231,-14.767436,-2.442086,0.0,49.83825,24.018862,322.0,NaN,3.024,12.0,105.5,15 / 16,154032,2020-03-15 11:53:38:276
-7.422025,-6.588843,-4.970362,0.0,49.83825,24.018862,322.0,NaN,3.024,12.0,105.5,15 / 16,154532,2020-03-15 11:53:38:776
2.777274,-12.200851,-2.111686,0.0,49.83825,24.018862,322.0,NaN,3.024,12.0,105.5,15 / 16,155032,2020-03-15 11:53:39:276
5.080496,-8.389283,-8.633492,0.0,49.83825,24.018862,322.0,NaN,3.024,12.0,105.5,15 / 16,155531,2020-03-15 11:53:39:775
2.906561,-8.647857,-0.301669,0.0,49.83825,24.018862,322.0,NaN,3.024,12.0,105.5,15 / 16,156032,2020-03-15 11:53:40:276
0.588974,-5.951985,-1.359906,0.0,49.83825,24.018862,322.0,NaN,3.024,12.0,105.5,15 / 16,156532,2020-03-15 11:53:40:776
0.632069,-9.629479,-1.647211,0.0,49.83825,24.018862,322.0,NaN,3.024,12.0,105.5,15 / 16,157032,2020-03-15 11:53:41:276
4.098873,-13.383588,-3.428497,0.0,49.83825,24.018862,322.0,NaN,3.024,12.0,105.5,15 / 16,157532,2020-03-15 11:53:41:776
9.361329,-6.646304,-9.662998,0.0,49.83825,24.018862,322.0,NaN,3.024,12.0,105.5,15 / 16,158031,2020-03-15 11:53:42:275
2.600103,-8.451532,-0.679953,0.0,49.83825,24.018862,322.0,NaN,3.024,12.0,105.5,15 / 16,158532,2020-03-15 11:53:42:776
0.047884,-4.185065,0.363919,0.0,49.83825,24.018862,322.0,NaN,3.024,12.0,105.5,15 / 16,159032,2020-03-15 11:53:43:276
2.949657,-11.032481,-0.708684,0.0,49.83825,24.018862,322.0,NaN,3.024,12.0,105.5,15 / 16,159531,2020-03-15 11:53:43:775
3.351883,-11.554418,-2.087744,0.0,49.83825,24.018862,322.0,NaN,3.024,12.0,105.5,15 / 16,160032,2020-03-15 11:53:44:276
5.166688,-6.914454,-9.102755,0.0,49.83825,24.018862,322.0,NaN,3.024,12.0,105.5,15 / 16,160532,2020-03-15 11:53:44:776
1.685518,-8.451532,1.450886,0.0,49.83825,24.018862,322.0,NaN,3.024,12.0,105.5,15 / 16,161032,2020-03-15 11:53:45:276
4.003105,-8.815451,-0.56982,0.0,49.83825,24.018862,322.0,NaN,3.024,12.0,105.5,15 / 16,161532,2020-03-15 11:53:45:776
4.060566,-12.65575,-14.111424,0.0,49.83825,24.018862,322.0,NaN,3.024,12.0,105.5,15 / 16,162031,2020-03-15 11:53:46:275
6.181829,-11.990162,2.284068,0.0,49.83825,24.018862,322.0,NaN,3.024,12.0,105.5,15 / 16,162532,2020-03-15 11:53:46:776
1.532289,-15.409082,-19.594147,0.0,49.83825,24.018862,322.0,NaN,3.024,12.0,105.5,15 / 16,163032,2020-03-15 11:53:47:276
2.317587,-9.255983,-1.503559,0.0,49.83825,24.018862,322.0,NaN,3.024,12.0,105.5,15 / 16,163532,2020-03-15 11:53:47:776
-0.675165,-6.488286,-0.086191,0.0,49.83825,24.018862,322.0,NaN,3.024,12.0,105.5,15 / 16,164032,2020-03-15 11:53:48:276
1.431733,-8.743625,-2.887407,0.0,49.83825,24.018862,322.0,NaN,3.024,12.0,105.5,15 / 16,164531,2020-03-15 11:53:48:775
4.1707,-13.575124,-3.045424,0.0,49.83825,24.018862,322.0,NaN,3.024,12.0,105.5,15 / 16,165032,2020-03-15 11:53:49:276
7.627927,-9.035717,-13.771448,0.0,49.83825,24.018862,322.0,NaN,3.024,12.0,105.5,15 / 16,165532,2020-03-15 11:53:49:776
2.533065,-8.408437,-1.268927,0.0,49.83825,24.018862,322.0,NaN,3.024,12.0,105.5,15 / 16,166032,2020-03-15 11:53:50:276
2.494758,-9.744401,0.129287,0.0,49.83825,24.018862,322.0,NaN,3.024,12.0,105.5,15 / 16,166532,2020-03-15 11:53:50:776
4.592079,-10.232818,-1.671153,0.0,49.83825,24.018862,322.0,NaN,3.024,12.0,105.5,15 / 16,167032,2020-03-15 11:53:51:276
1.072602,-12.397177,-0.244209,0.0,49.83825,24.018862,322.0,NaN,3.024,12.0,105.5,15 / 16,167532,2020-03-15 11:53:51:776
3.634398,-5.473145,-5.841852,0.0,49.83825,24.018862,322.0,NaN,3.024,12.0,105.5,15 / 16,168032,2020-03-15 11:53:52:276
2.322376,-8.192958,0.397437,0.0,49.83825,24.018862,322.0,NaN,3.024,12.0,105.5,15 / 16,168532,2020-03-15 11:53:52:776
4.309563,-8.322244,-0.301669,0.0,49.83825,24.018862,322.0,NaN,3.024,12.0,105.5,15 / 16,169032,2020-03-15 11:53:53:276
7.675811,-9.648633,10.371682,0.0,49.83825,24.018862,322.0,NaN,3.024,12.0,105.5,15 / 16,169532,2020-03-15 11:53:53:776
6.066907,-10.635044,-1.125275,0.0,49.83825,24.018862,322.0,NaN,3.024,12.0,105.5,15 / 16,170031,2020-03-15 11:53:54:275
-1.158794,-4.807557,-0.574608,0.0,49.83825,24.018862,322.0,NaN,3.024,12.0,105.5,15 / 16,170532,2020-03-15 11:53:54:776
1.37906,-8.408437,1.316811,0.0,49.83825,24.018862,322.0,NaN,3.024,12.0,105.5,15 / 16,171032,2020-03-15 11:53:55:276
4.003105,-7.043741,-1.331176,0.0,49.83825,24.018862,322.0,NaN,3.024,12.0,105.5,15 / 16,171532,2020-03-15 11:53:55:776
5.76045,-11.477803,0.493206,0.0,49.83825,24.018862,322.0,NaN,3.024,12.0,105.5,15 / 16,172032,2020-03-15 11:53:56:276
5.650316,-12.717999,0.263362,0.0,49.83825,24.018862,322.0,NaN,3.024,12.0,105.5,15 / 16,172531,2020-03-15 11:53:56:775
4.491523,-4.367024,-7.498639,0.0,49.83825,24.018862,322.0,NaN,3.024,12.0,105.5,15 / 16,173032,2020-03-15 11:53:57:276
1.752556,-7.273585,-1.283292,0.0,49.83825,24.018862,322.0,NaN,3.024,12.0,105.5,15 / 16,173532,2020-03-15 11:53:57:776
1.077391,-13.086706,-0.612916,0.0,49.83825,24.018862,322.0,NaN,3.024,12.0,105.5,15 / 16,174032,2020-03-15 11:53:58:276
2.911349,-8.413225,-4.338293,0.0,49.83825,24.018862,322.0,NaN,3.024,12.0,105.5,15 / 16,174532,2020-03-15 11:53:58:776
4.505888,-12.239159,-1.805228,0.0,49.83825,24.018862,322.0,NaN,3.024,12.0,105.5,15 / 16,175032,2020-03-15 11:53:59:276
4.141969,-6.095637,-10.726024,0.0,49.83825,24.018862,322.0,NaN,3.024,12.0,105.5,15 / 16,175532,2020-03-15 11:53:59:776
3.05979,-7.216124,-1.886631,0.0,49.83825,24.018862,322.0,NaN,3.024,12.0,105.5,15 / 16,176032,2020-03-15 11:54:00:276
1.307234,-11.63582,-3.835511,0.0,49.83825,24.018862,322.0,NaN,3.024,12.0,105.5,15 / 16,176533,2020-03-15 11:54:00:777
8.992621,-10.113108,14.274231,0.0,49.83825,24.018862,322.0,NaN,3.024,12.0,105.5,0 / 0,177032,2020-03-15 11:54:01:276
4.285621,-12.08593,-0.402226,0.0,49.83825,24.018862,322.0,NaN,3.024,12.0,105.5,0 / 0,177532,2020-03-15 11:54:01:776
0.229843,-4.874594,-1.489193,0.0,49.83825,24.018862,322.0,NaN,3.024,12.0,105.5,0 / 3,178032,2020-03-15 11:54:02:276
2.365471,-10.299856,-2.059013,0.0,49.83825,24.018862,322.0,NaN,3.024,12.0,105.5,0 / 3,178532,2020-03-15 11:54:02:776
1.182736,-11.51611,-1.034295,0.0,49.83825,24.018862,322.0,NaN,3.024,12.0,105.5,0 / 4,179032,2020-03-15 11:54:03:276
-8.15465,-6.588843,5.181053,0.0,49.83825,24.018862,322.0,NaN,3.024,12.0,105.5,0 / 4,179532,2020-03-15 11:54:03:776
6.009446,-9.452309,0.023942,0.0,49.83825,24.018862,322.0,NaN,3.024,12.0,105.5,11 / 13,180031,2020-03-15 11:54:04:275
-1.106121,-4.520252,-0.502782,0.0,49.83825,24.018862,322.0,NaN,3.024,12.0,105.5,11 / 13,180532,2020-03-15 11:54:04:776
1.939303,-10.500969,-2.896984,0.0,49.838013,24.018286,331.0,NaN,4.068,11.0,255.7,15 / 18,181032,2020-03-15 11:54:05:276
2.145205,-12.210428,1.436521,0.0,49.838013,24.018286,331.0,NaN,4.068,11.0,255.7,15 / 18,181532,2020-03-15 11:54:05:776
2.183512,-8.887277,-6.004657,0.0,49.838013,24.018286,331.0,NaN,4.068,11.0,255.7,15 / 18,182031,2020-03-15 11:54:06:275
2.935291,-8.595184,0.378284,0.0,49.838013,24.018286,331.0,NaN,4.068,11.0,255.7,15 / 18,182532,2020-03-15 11:54:06:776
0.565032,-6.172252,0.02873,0.0,49.838013,24.018286,331.0,NaN,4.068,11.0,255.7,15 / 18,183032,2020-03-15 11:54:07:276
2.566584,-7.120356,-1.187524,0.0,49.838013,24.018286,331.0,NaN,4.068,11.0,255.7,15 / 18,183532,2020-03-15 11:54:07:776
2.073379,-10.874464,-1.781286,0.0,49.838013,24.018286,331.0,NaN,4.068,11.0,255.7,15 / 18,184032,2020-03-15 11:54:08:276
-5.999869,-4.424484,5.386954,0.0,49.838013,24.018286,331.0,NaN,4.068,11.0,255.7,15 / 18,184531,2020-03-15 11:54:08:775
6.550536,-9.136273,-1.225831,0.0,49.838013,24.018286,331.0,NaN,4.068,11.0,255.7,15 / 18,185032,2020-03-15 11:54:09:276
-0.885855,-4.855441,-0.320823,0.0,49.838013,24.018286,331.0,NaN,4.068,11.0,255.7,15 / 18,185532,2020-03-15 11:54:09:776
2.217031,-10.376471,-1.431733,0.0,49.838013,24.018286,331.0,NaN,4.068,11.0,255.7,15 / 18,186032,2020-03-15 11:54:10:276
3.936068,-12.033257,-1.49877,0.0,49.838013,24.018286,331.0,NaN,4.068,11.0,255.7,15 / 18,186532,2020-03-15 11:54:10:776
6.359,-8.202534,-9.667787,0.0,49.838013,24.018286,331.0,NaN,4.068,11.0,255.7,15 / 18,187031,2020-03-15 11:54:11:275
4.692636,-12.603078,-0.186748,0.0,49.838013,24.018286,331.0,NaN,4.068,11.0,255.7,15 / 18,187532,2020-03-15 11:54:11:776
2.394202,-4.165911,-3.720589,0.0,49.838013,24.018286,331.0,NaN,4.068,11.0,255.7,15 / 18,188033,2020-03-15 11:54:12:277
3.021483,-8.422802,-1.192312,0.0,49.838013,24.018286,331.0,NaN,4.068,11.0,255.7,15 / 18,188532,2020-03-15 11:54:12:776
0.818817,-11.693281,0.023942,0.0,49.838013,24.018286,331.0,NaN,4.068,11.0,255.7,15 / 18,189032,2020-03-15 11:54:13:276
5.118803,-7.072471,-13.570335,0.0,49.838013,24.018286,331.0,NaN,4.068,11.0,255.7,15 / 18,189532,2020-03-15 11:54:13:776
1.996764,-8.374918,0.311246,0.0,49.838013,24.018286,331.0,NaN,4.068,11.0,255.7,15 / 18,190032,2020-03-15 11:54:14:276
4.774039,-7.637503,-0.110133,0.0,49.838013,24.018286,331.0,NaN,4.068,11.0,255.7,15 / 18,190531,2020-03-15 11:54:14:775
4.496311,-13.062764,2.059013,0.0,49.838013,24.018286,331.0,NaN,4.068,11.0,255.7,15 / 18,191032,2020-03-15 11:54:15:276
4.501099,-11.827356,-0.584185,0.0,49.838013,24.018286,331.0,NaN,4.068,11.0,255.7,15 / 18,191532,2020-03-15 11:54:15:776
4.984728,-5.597643,-7.699753,0.0,49.838013,24.018286,331.0,NaN,4.068,11.0,255.7,15 / 18,192032,2020-03-15 11:54:16:276
2.604892,-8.121132,0.033519,0.0,49.838013,24.018286,331.0,NaN,4.068,11.0,255.7,15 / 18,192532,2020-03-15 11:54:16:776
5.386954,-9.725247,-1.225831,0.0,49.838013,24.018286,331.0,NaN,4.068,11.0,255.7,15 / 18,193031,2020-03-15 11:54:17:275
5.798757,-13.828909,-9.662998,0.0,49.838013,24.018286,331.0,NaN,4.068,11.0,255.7,15 / 18,193532,2020-03-15 11:54:17:776
5.023035,-11.99495,-0.967257,0.0,49.838013,24.018286,331.0,NaN,4.068,11.0,255.7,15 / 18,194032,2020-03-15 11:54:18:276
2.298434,-3.53863,-2.633622,0.0,49.838013,24.018286,331.0,NaN,4.068,11.0,255.7,15 / 18,194532,2020-03-15 11:54:18:776
3.380613,-7.254431,-1.92015,0.0,49.838013,24.018286,331.0,NaN,4.068,11.0,255.7,15 / 18,195032,2020-03-15 11:54:19:276
1.254562,-14.662091,2.94008,0.0,49.838013,24.018286,331.0,NaN,4.068,11.0,255.7,15 / 18,195532,2020-03-15 11:54:19:776
6.004658,-9.509769,1.795651,0.0,49.838013,24.018286,331.0,NaN,4.068,11.0,255.7,15 / 18,196032,2020-03-15 11:54:20:276
3.892972,-11.836933,1.58975,0.0,49.838013,24.018286,331.0,NaN,4.068,11.0,255.7,15 / 18,196532,2020-03-15 11:54:20:776
3.548207,-4.76925,-3.251326,0.0,49.838013,24.018286,331.0,NaN,4.068,11.0,255.7,15 / 18,197031,2020-03-15 11:54:21:275
0.80924,-6.947973,-2.303222,0.0,49.838013,24.018286,331.0,NaN,4.068,11.0,255.7,15 / 18,197532,2020-03-15 11:54:21:776
1.833959,-13.64695,1.771709,0.0,49.838013,24.018286,331.0,NaN,4.068,11.0,255.7,15 / 18,198032,2020-03-15 11:54:22:276
4.204219,-8.872911,-10.998962,0.0,49.838013,24.018286,331.0,NaN,4.068,11.0,255.7,15 / 18,198532,2020-03-15 11:54:22:776
2.633622,-9.102755,0.713472,0.0,49.838013,24.018286,331.0,NaN,4.068,11.0,255.7,15 / 18,199032,2020-03-15 11:54:23:276
4.778827,-6.703765,0.497994,0.0,49.838013,24.018286,331.0,NaN,4.068,11.0,255.7,15 / 18,199532,2020-03-15 11:54:23:776
4.965575,-7.393295,-1.810016,0.0,49.838013,24.018286,331.0,NaN,4.068,11.0,255.7,15 / 18,200032,2020-03-15 11:54:24:276
1.034295,-12.282255,2.442086,0.0,49.838013,24.018286,331.0,NaN,4.068,11.0,255.7,15 / 18,200532,2020-03-15 11:54:24:776
4.496311,-15.26543,-8.805874,0.0,49.838013,24.018286,331.0,NaN,4.068,11.0,255.7,15 / 18,201032,2020-03-15 11:54:25:276
4.419697,-10.242394,-3.174711,0.0,49.838013,24.018286,331.0,NaN,4.068,11.0,255.7,15 / 18,201532,2020-03-15 11:54:25:776
-0.143652,-5.894524,-2.418144,0.0,49.838013,24.018286,331.0,NaN,4.068,11.0,255.7,15 / 18,202032,2020-03-15 11:54:26:276
3.643975,-11.262324,-0.938527,0.0,49.838013,24.018286,331.0,NaN,4.068,11.0,255.7,15 / 18,202532,2020-03-15 11:54:26:776
5.013459,-13.196839,-2.954445,0.0,49.838013,24.018286,331.0,NaN,4.068,11.0,255.7,15 / 18,203032,2020-03-15 11:54:27:276
5.48751,-7.110779,-8.599973,0.0,49.838013,24.018286,331.0,NaN,4.068,11.0,255.7,15 / 18,203532,2020-03-15 11:54:27:776
5.257667,-9.5385,-1.833958,0.0,49.838013,24.018286,331.0,NaN,4.068,11.0,255.7,15 / 18,204032,2020-03-15 11:54:28:276
0.167594,-6.373365,-2.365471,0.0,49.838013,24.018286,331.0,NaN,4.068,11.0,255.7,15 / 18,204532,2020-03-15 11:54:28:776
1.508347,-10.500969,-0.617704,0.0,49.838013,24.018286,331.0,NaN,4.068,11.0,255.7,15 / 18,205032,2020-03-15 11:54:29:276
4.644751,-11.918336,-3.552995,0.0,49.838013,24.018286,331.0,NaN,4.068,11.0,255.7,15 / 18,205532,2020-03-15 11:54:29:776
4.180277,-7.915231,-8.887277,0.0,49.838013,24.018286,331.0,NaN,4.068,11.0,255.7,15 / 18,206031,2020-03-15 11:54:30:275
2.217031,-8.140285,-0.316035,0.0,49.838013,24.018286,331.0,NaN,4.068,11.0,255.7,15 / 18,206532,2020-03-15 11:54:30:776
1.719037,-11.836933,-2.260126,0.0,49.838013,24.018286,331.0,NaN,4.068,11.0,255.7,15 / 18,207032,2020-03-15 11:54:31:276
-6.335057,0.354342,15.428236,0.0,49.838013,24.018286,331.0,NaN,4.068,11.0,255.7,15 / 18,207532,2020-03-15 11:54:31:776
4.663905,-12.966996,-2.240973,0.0,49.838013,24.018286,331.0,NaN,4.068,11.0,255.7,15 / 18,208032,2020-03-15 11:54:32:276
3.394978,-4.271256,-8.140285,0.0,49.838013,24.018286,331.0,NaN,4.068,11.0,255.7,15 / 18,208531,2020-03-15 11:54:32:775
1.302446,-6.952761,-2.173935,0.0,49.838013,24.018286,331.0,NaN,4.068,11.0,255.7,15 / 18,209032,2020-03-15 11:54:33:276
1.474828,-11.616667,-2.413355,0.0,49.838013,24.018286,331.0,NaN,4.068,11.0,255.7,15 / 18,209532,2020-03-15 11:54:33:776
-3.351882,-5.147533,7.264008,0.0,49.838013,24.018286,331.0,NaN,4.068,11.0,255.7,15 / 18,210031,2020-03-15 11:54:34:275
6.402096,-8.858546,-1.383848,0.0,49.838013,24.018286,331.0,NaN,4.068,11.0,255.7,15 / 18,210532,2020-03-15 11:54:34:776
-0.603339,-6.258443,-1.321599,0.0,49.838013,24.018286,331.0,NaN,4.068,11.0,255.7,15 / 18,211032,2020-03-15 11:54:35:276
1.120486,-11.075577,-1.024718,0.0,49.838013,24.018286,331.0,NaN,4.068,11.0,255.7,15 / 18,211532,2020-03-15 11:54:35:776
2.600103,-13.215993,0.301669,0.0,49.838013,24.018286,331.0,NaN,4.068,11.0,255.7,15 / 18,212032,2020-03-15 11:54:36:276
1.067814,-13.603854,-15.844827,0.0,49.838013,24.018286,331.0,NaN,4.068,11.0,255.7,15 / 18,212532,2020-03-15 11:54:36:776
1.982399,-8.087613,-0.78051,0.0,49.838013,24.018286,331.0,NaN,4.068,11.0,255.7,15 / 18,213031,2020-03-15 11:54:37:275
-1.934515,-3.883395,-0.92895,0.0,49.838013,24.018286,331.0,NaN,4.068,11.0,255.7,15 / 18,213532,2020-03-15 11:54:37:776
2.604892,-9.801862,-1.647211,0.0,49.838013,24.018286,331.0,NaN,4.068,11.0,255.7,15 / 18,214032,2020-03-15 11:54:38:276
0.881066,-12.531252,2.528277,0.0,49.838013,24.018286,331.0,NaN,4.068,11.0,255.7,15 / 18,214531,2020-03-15 11:54:38:775
0.656011,-17.425,3.548207,0.0,49.838013,24.018286,331.0,NaN,4.068,11.0,255.7,15 / 18,215032,2020-03-15 11:54:39:276
8.044518,-8.983045,-1.422156,0.0,49.838013,24.018286,331.0,NaN,4.068,11.0,255.7,15 / 18,215532,2020-03-15 11:54:39:776
9.80665,-5.793968,-11.128249,0.0,49.838013,24.018286,331.0,NaN,4.068,11.0,255.7,15 / 18,216032,2020-03-15 11:54:40:276
2.647987,-8.240842,-1.685518,0.0,49.838013,24.018286,331.0,NaN,4.068,11.0,255.7,15 / 18,216532,2020-03-15 11:54:40:776
0.852336,-12.976573,-1.781286,0.0,49.838013,24.018286,331.0,NaN,4.068,11.0,255.7,15 / 18,217031,2020-03-15 11:54:41:275
-5.075707,-4.400542,7.603985,0.0,49.838013,24.018286,331.0,NaN,4.068,11.0,255.7,15 / 18,217532,2020-03-15 11:54:41:776
7.374141,-9.356541,-0.244209,0.0,49.838013,24.018286,331.0,NaN,4.068,11.0,255.7,15 / 18,218032,2020-03-15 11:54:42:276
-1.01993,-4.783615,-1.043872,0.0,49.838013,24.018286,331.0,NaN,4.068,11.0,255.7,15 / 18,218532,2020-03-15 11:54:42:776
4.01747,-11.722012,-1.177947,0.0,49.838013,24.018286,331.0,NaN,4.068,11.0,255.7,15 / 18,219032,2020-03-15 11:54:43:276
4.831499,-13.302185,-3.457227,0.0,49.838013,24.018286,331.0,NaN,4.068,11.0,255.7,15 / 18,219532,2020-03-15 11:54:43:776
5.252879,-7.383718,-1.01993,0.0,49.838013,24.018286,331.0,NaN,4.068,11.0,255.7,15 / 18,220031,2020-03-15 11:54:44:275
5.918467,-9.878476,0.742203,0.0,49.838013,24.018286,331.0,NaN,4.068,11.0,255.7,15 / 18,220532,2020-03-15 11:54:44:776
0.311246,-6.263232,-0.6608,0.0,49.838013,24.018286,331.0,NaN,4.068,11.0,255.7,15 / 18,221032,2020-03-15 11:54:45:276
2.111686,-10.098742,-3.184288,0.0,49.838013,24.018286,331.0,NaN,4.068,11.0,255.7,15 / 18,221532,2020-03-15 11:54:45:776
4.74052,-12.440272,-1.283292,0.0,49.838013,24.018286,331.0,NaN,4.068,11.0,255.7,15 / 18,222032,2020-03-15 11:54:46:276
4.812346,-5.741296,-10.658986,0.0,49.838013,24.018286,331.0,NaN,4.068,11.0,255.7,15 / 18,222531,2020-03-15 11:54:46:775
3.529053,-8.269572,-0.962469,0.0,49.838013,24.018286,331.0,NaN,4.068,11.0,255.7,15 / 18,223032,2020-03-15 11:54:47:276
2.351106,-15.480908,-2.149993,0.0,49.838013,24.018286,331.0,NaN,4.068,11.0,255.7,15 / 18,223532,2020-03-15 11:54:47:776
0.354342,-9.940725,-0.948104,0.0,49.838013,24.018286,331.0,NaN,4.068,11.0,255.7,15 / 18,224032,2020-03-15 11:54:48:276
5.473145,-12.780249,-3.457227,0.0,49.838013,24.018286,331.0,NaN,4.068,11.0,255.7,15 / 18,224532,2020-03-15 11:54:48:776
6.44998,-3.428497,-6.991069,0.0,49.838013,24.018286,331.0,NaN,4.068,11.0,255.7,15 / 18,225031,2020-03-15 11:54:49:275
2.576161,-8.135497,0.612916,0.0,49.838013,24.018286,331.0,NaN,4.068,11.0,255.7,15 / 18,225532,2020-03-15 11:54:49:776
2.561796,-6.531382,-1.977611,0.0,49.838013,24.018286,331.0,NaN,4.068,11.0,255.7,15 / 18,226031,2020-03-15 11:54:50:275
6.517017,-10.491392,-0.320823,0.0,49.838013,24.018286,331.0,NaN,4.068,11.0,255.7,15 / 18,226532,2020-03-15 11:54:50:776
5.118803,-12.919112,-1.278504,0.0,49.838013,24.018286,331.0,NaN,4.068,11.0,255.7,15 / 18,227032,2020-03-15 11:54:51:276
1.877054,-4.903325,-2.102109,0.0,49.838013,24.018286,331.0,NaN,4.068,11.0,255.7,15 / 18,227532,2020-03-15 11:54:51:776
2.499547,-8.623915,-0.105345,0.0,49.838013,24.018286,331.0,NaN,4.068,11.0,255.7,15 / 18,228031,2020-03-15 11:54:52:275
5.501876,-9.011775,-0.521936,0.0,49.838013,24.018286,331.0,NaN,4.068,11.0,255.7,15 / 18,228532,2020-03-15 11:54:52:776
5.406108,-10.16578,3.256114,0.0,49.838013,24.018286,331.0,NaN,4.068,11.0,255.7,15 / 18,229032,2020-03-15 11:54:53:276
5.544971,-11.856087,-1.240196,0.0,49.838013,24.018286,331.0,NaN,4.068,11.0,255.7,15 / 18,229532,2020-03-15 11:54:53:776
-0.574608,-4.898536,-0.881066,0.0,49.838013,24.018286,331.0,NaN,4.068,11.0,255.7,15 / 18,230032,2020-03-15 11:54:54:276
2.461239,-10.97502,-1.47004,0.0,49.838013,24.018286,331.0,NaN,4.068,11.0,255.7,15 / 18,230531,2020-03-15 11:54:54:775
3.337517,-12.98615,-3.203442,0.0,49.838013,24.018286,331.0,NaN,4.068,11.0,255.7,15 / 18,231032,2020-03-15 11:54:55:276
7.335834,-5.305551,-9.050082,0.0,49.838013,24.018286,331.0,NaN,4.068,11.0,255.7,15 / 18,231532,2020-03-15 11:54:55:776
2.140417,-9.045294,-1.374272,0.0,49.838013,24.018286,331.0,NaN,4.068,11.0,255.7,15 / 18,232031,2020-03-15 11:54:56:275
3.438074,-7.64708,-0.684742,0.0,49.838013,24.018286,331.0,NaN,4.068,11.0,255.7,15 / 18,232532,2020-03-15 11:54:56:776
6.794745,-10.34774,-0.201113,0.0,49.838013,24.018286,331.0,NaN,4.068,11.0,255.7,15 / 18,233032,2020-03-15 11:54:57:276
4.237737,-12.799402,-1.355118,0.0,49.838013,24.018286,331.0,NaN,4.068,11.0,255.7,15 / 18,233532,2020-03-15 11:54:57:776
-0.038307,-4.94642,-1.503559,0.0,49.838013,24.018286,331.0,NaN,4.068,11.0,255.7,15 / 18,234032,2020-03-15 11:54:58:276
3.495535,-9.725247,-1.249773,0.0,49.838013,24.018286,331.0,NaN,4.068,11.0,255.7,15 / 18,234532,2020-03-15 11:54:58:776
3.758897,-13.412318,-2.571372,0.0,49.838013,24.018286,331.0,NaN,4.068,11.0,255.7,15 / 18,235032,2020-03-15 11:54:59:276
2.202666,-6.339846,-9.993398,0.0,49.838013,24.018286,331.0,NaN,4.068,11.0,255.7,15 / 18,235531,2020-03-15 11:54:59:775
5.21936,-11.856087,-0.847547,0.0,49.838013,24.018286,331.0,NaN,4.068,11.0,255.7,15 / 18,236032,2020-03-15 11:55:00:276
0.292093,-4.936844,-0.474052,0.0,49.838013,24.018286,331.0,NaN,4.068,11.0,255.7,15 / 18,236532,2020-03-15 11:55:00:776
3.193865,-10.453085,-1.972822,0.0,49.838013,24.018286,331.0,NaN,4.068,11.0,255.7,0 / 0,237031,2020-03-15 11:55:01:275
4.414908,-13.163321,-3.064578,0.0,49.837246,24.017063,,NaN,,49.544994,,0 / 0,237532,2020-03-15 11:55:01:776
2.767697,-3.423708,-5.453991,0.0,49.837246,24.017063,,NaN,,49.544994,,0 / 2,238032,2020-03-15 11:55:02:276
2.925715,-8.705317,-0.876278,0.0,49.837246,24.017063,,NaN,,49.544994,,0 / 2,238531,2020-03-15 11:55:02:775
1.608904,-11.018116,-2.829946,0.0,49.837246,24.017063,,NaN,,49.544994,,0 / 7,239032,2020-03-15 11:55:03:276
1.599327,-7.345411,-11.525687,0.0,49.837246,24.017063,,NaN,,49.544994,,0 / 7,239532,2020-03-15 11:55:03:776
5.142745,-12.555194,-3.040636,0.0,49.837246,24.017063,,NaN,,49.544994,,0 / 8,240032,2020-03-15 11:55:04:276
5.832276,-7.163451,-10.860099,0.0,49.837246,24.017063,,NaN,,49.544994,,0 / 9,240531,2020-03-15 11:55:04:775
3.193865,-7.235277,-0.550666,0.0,49.837246,24.017063,,NaN,,49.544994,,0 / 9,241032,2020-03-15 11:55:05:276
1.58975,-12.176909,-1.537077,0.0,49.837482,24.017632,342.0,NaN,2.736,16.0,0.0,11 / 11,241532,2020-03-15 11:55:05:776
6.248867,-9.169792,5.904102,0.0,49.837482,24.017632,342.0,NaN,2.736,16.0,0.0,11 / 11,242032,2020-03-15 11:55:06:276
6.0286,-12.761095,-1.154005,0.0,49.837482,24.017632,342.0,NaN,2.736,16.0,0.0,15 / 15,242531,2020-03-15 11:55:06:775
1.752556,-4.237737,-1.982399,0.0,49.837482,24.017632,342.0,NaN,2.736,16.0,0.0,15 / 15,243032,2020-03-15 11:55:07:276
4.261679,-7.747637,-1.546654,0.0,49.837482,24.017632,342.0,NaN,2.736,16.0,0.0,15 / 15,243532,2020-03-15 11:55:07:776
0.713472,-6.497863,-1.503559,0.0,49.837482,24.017632,342.0,NaN,2.736,16.0,0.0,15 / 15,244032,2020-03-15 11:55:08:276
1.666364,-9.002198,-2.657564,0.0,49.837482,24.017632,342.0,NaN,2.736,16.0,0.0,15 / 15,244532,2020-03-15 11:55:08:776
6.445191,-13.862428,-3.452439,0.0,49.837482,24.017632,342.0,NaN,2.736,16.0,0.0,15 / 15,245032,2020-03-15 11:55:09:276
7.105991,-7.091625,-9.56723,0.0,49.837482,24.017632,342.0,NaN,2.736,16.0,0.0,15 / 15,245532,2020-03-15 11:55:09:776
2.715025,-7.809886,-1.781286,0.0,49.837482,24.017632,342.0,NaN,2.736,16.0,0.0,15 / 15,246032,2020-03-15 11:55:10:276
3.734955,-9.816227,-0.967257,0.0,49.837482,24.017632,342.0,NaN,2.736,16.0,0.0,15 / 15,246532,2020-03-15 11:55:10:776
8.207323,-9.576807,11.449073,0.0,49.837482,24.017632,342.0,NaN,2.736,16.0,0.0,15 / 15,247032,2020-03-15 11:55:11:276
5.209783,-12.713211,-0.967257,0.0,49.837482,24.017632,342.0,NaN,2.736,16.0,0.0,15 / 15,247532,2020-03-15 11:55:11:776
4.553772,-6.531382,-6.938396,0.0,49.837482,24.017632,342.0,NaN,2.736,16.0,0.0,15 / 15,248032,2020-03-15 11:55:12:276
3.112462,-8.346187,2.25055,0.0,49.837482,24.017632,342.0,NaN,2.736,16.0,0.0,15 / 15,248532,2020-03-15 11:55:12:776
1.972822,-7.000645,-1.16837,0.0,49.837482,24.017632,342.0,NaN,2.736,16.0,0.0,15 / 15,249032,2020-03-15 11:55:13:276
3.821146,-7.608773,-3.102885,0.0,49.837482,24.017632,342.0,NaN,2.736,16.0,0.0,15 / 15,249531,2020-03-15 11:55:13:775
5.990293,-14.867992,-3.691859,0.0,49.837482,24.017632,342.0,NaN,2.736,16.0,0.0,15 / 15,250032,2020-03-15 11:55:14:276
7.742849,-6.042965,-11.209652,0.0,49.837482,24.017632,342.0,NaN,2.736,16.0,0.0,15 / 15,250531,2020-03-15 11:55:14:775
2.442086,-7.829039,-0.785298,0.0,49.837482,24.017632,342.0,NaN,2.736,16.0,0.0,15 / 15,251032,2020-03-15 11:55:15:276
2.94008,-9.572019,-0.804452,0.0,49.837482,24.017632,342.0,NaN,2.736,16.0,0.0,15 / 15,251532,2020-03-15 11:55:15:776
4.352659,-9.504981,-1.039083,0.0,49.837482,24.017632,342.0,NaN,2.736,16.0,0.0,15 / 15,252032,2020-03-15 11:55:16:276
0.866701,-14.068329,4.07972,0.0,49.837482,24.017632,342.0,NaN,2.736,16.0,0.0,15 / 15,252532,2020-03-15 11:55:16:776
3.021483,-8.116343,-3.672705,0.0,49.837482,24.017632,342.0,NaN,2.736,16.0,0.0,15 / 15,253032,2020-03-15 11:55:17:276
2.092532,-8.719683,-0.043096,0.0,49.837482,24.017632,342.0,NaN,2.736,16.0,0.0,15 / 15,253532,2020-03-15 11:55:17:776
1.766921,-6.675034,-0.459687,0.0,49.837482,24.017632,342.0,NaN,2.736,16.0,0.0,15 / 15,254031,2020-03-15 11:55:18:275
2.633622,-8.355764,-2.42772,0.0,49.837482,24.017632,342.0,NaN,2.736,16.0,0.0,15 / 15,254532,2020-03-15 11:55:18:776
6.066907,-12.899959,-2.331952,0.0,49.837482,24.017632,342.0,NaN,2.736,16.0,0.0,15 / 15,255032,2020-03-15 11:55:19:276
6.579266,-10.323798,-12.923901,0.0,49.837482,24.017632,342.0,NaN,2.736,16.0,0.0,15 / 15,255532,2020-03-15 11:55:19:776
4.07972,-11.243171,-0.45011,0.0,49.837482,24.017632,342.0,NaN,2.736,16.0,0.0,15 / 15,256031,2020-03-15 11:55:20:275
-1.728614,-4.070143,1.383849,0.0,49.837482,24.017632,342.0,NaN,2.736,16.0,0.0,15 / 15,256532,2020-03-15 11:55:20:776
1.565808,-10.386047,-0.21069,0.0,49.837482,24.017632,342.0,NaN,2.736,16.0,0.0,15 / 15,257032,2020-03-15 11:55:21:276
1.61848,-11.559206,-1.091756,0.0,49.837482,24.017632,342.0,NaN,2.736,16.0,0.0,15 / 15,257531,2020-03-15 11:55:21:775
5.420473,-8.159439,-4.979939,0.0,49.837482,24.017632,342.0,NaN,2.736,16.0,0.0,15 / 15,258032,2020-03-15 11:55:22:276
6.215348,-8.446744,0.244209,0.0,49.837482,24.017632,342.0,NaN,2.736,16.0,0.0,15 / 15,258532,2020-03-15 11:55:22:776
-1.16837,-4.606444,0.665588,0.0,49.837482,24.017632,342.0,NaN,2.736,16.0,0.0,15 / 15,259031,2020-03-15 11:55:23:275
-0.067038,-9.868899,0.076614,0.0,49.837482,24.017632,342.0,NaN,2.736,16.0,0.0,15 / 15,259532,2020-03-15 11:55:23:776
2.944868,-5.477933,0.92895,0.0,49.837482,24.017632,342.0,NaN,2.736,16.0,0.0,15 / 15,260032,2020-03-15 11:55:24:276
2.743755,-7.637503,-0.555455,0.0,49.837482,24.017632,342.0,NaN,2.736,16.0,0.0,15 / 15,260532,2020-03-15 11:55:24:776
5.406108,-13.393165,-3.332729,0.0,49.837482,24.017632,342.0,NaN,2.736,16.0,0.0,15 / 15,261031,2020-03-15 11:55:25:275
5.559336,-7.594407,-8.101978,0.0,49.837482,24.017632,342.0,NaN,2.736,16.0,0.0,15 / 15,261532,2020-03-15 11:55:25:776
2.451663,-8.504205,-0.110133,0.0,49.837482,24.017632,342.0,NaN,2.736,16.0,0.0,15 / 15,262032,2020-03-15 11:55:26:276
4.97994,-6.971915,1.58975,0.0,49.837482,24.017632,342.0,NaN,2.736,16.0,0.0,15 / 15,262531,2020-03-15 11:55:26:775
7.029376,-19.211075,-7.489063,0.0,49.837482,24.017632,342.0,NaN,2.736,16.0,0.0,15 / 15,263032,2020-03-15 11:55:27:276
5.051766,-11.520899,-0.675165,0.0,49.837482,24.017632,342.0,NaN,2.736,16.0,0.0,15 / 15,263532,2020-03-15 11:55:27:776
9.859323,-15.222335,-10.01734,0.0,49.837482,24.017632,342.0,NaN,2.736,16.0,0.0,15 / 15,264032,2020-03-15 11:55:28:276
4.453215,-7.982268,-2.446874,0.0,49.837482,24.017632,342.0,NaN,2.736,16.0,0.0,15 / 15,264531,2020-03-15 11:55:28:775
0.301669,-3.184288,0.565032,0.0,49.837482,24.017632,342.0,NaN,2.736,16.0,0.0,15 / 15,265032,2020-03-15 11:55:29:276
-2.049437,-11.204864,-1.570596,0.0,49.837482,24.017632,342.0,NaN,2.736,16.0,0.0,15 / 15,265532,2020-03-15 11:55:29:776
-2.346318,-21.073763,3.533842,0.0,49.837482,24.017632,342.0,NaN,2.736,16.0,0.0,15 / 15,266032,2020-03-15 11:55:30:276
4.204219,-23.017855,-17.046717,0.0,49.837482,24.017632,342.0,NaN,2.736,16.0,0.0,15 / 15,266532,2020-03-15 11:55:30:776
6.818687,-9.600749,-0.162806,0.0,49.837482,24.017632,342.0,NaN,2.736,16.0,0.0,15 / 15,267032,2020-03-15 11:55:31:276
-1.043872,-3.409343,2.432509,0.0,49.837482,24.017632,342.0,NaN,2.736,16.0,0.0,15 / 15,267532,2020-03-15 11:55:31:776
7.206548,-8.432379,-1.891419,0.0,49.837482,24.017632,342.0,NaN,2.736,16.0,0.0,15 / 15,268031,2020-03-15 11:55:32:275
-2.020706,-2.892196,1.867477,0.0,49.837482,24.017632,342.0,NaN,2.736,16.0,0.0,15 / 15,268532,2020-03-15 11:55:32:776
4.185065,-8.743625,-1.934515,0.0,49.837482,24.017632,342.0,NaN,2.736,16.0,0.0,15 / 15,269032,2020-03-15 11:55:33:276
0.244209,-14.652514,-2.422932,0.0,49.837482,24.017632,342.0,NaN,2.736,16.0,0.0,15 / 15,269532,2020-03-15 11:55:33:776
-17.329231,-5.942408,1.369483,0.0,49.837482,24.017632,342.0,NaN,2.736,16.0,0.0,15 / 15,270031,2020-03-15 11:55:34:275
4.970363,-10.893618,0.114922,0.0,49.837482,24.017632,342.0,NaN,2.736,16.0,0.0,15 / 15,270532,2020-03-15 11:55:34:776
-1.115698,-3.490746,1.201889,0.0,49.837482,24.017632,342.0,NaN,2.736,16.0,0.0,15 / 15,271032,2020-03-15 11:55:35:276
4.64954,-8.959103,-2.121263,0.0,49.837482,24.017632,342.0,NaN,2.736,16.0,0.0,15 / 15,271531,2020-03-15 11:55:35:775
1.872266,-6.263232,-0.110133,0.0,49.837482,24.017632,342.0,NaN,2.736,16.0,0.0,15 / 15,272032,2020-03-15 11:55:36:276
5.870583,-9.988609,0.129287,0.0,49.837482,24.017632,342.0,NaN,2.736,16.0,0.0,15 / 15,272532,2020-03-15 11:55:36:776
4.865018,-12.406754,-1.13964,0.0,49.837482,24.017632,342.0,NaN,2.736,16.0,0.0,15 / 15,273032,2020-03-15 11:55:37:276
2.619257,-5.659893,-9.198523,0.0,49.837482,24.017632,342.0,NaN,2.736,16.0,0.0,15 / 15,273531,2020-03-15 11:55:37:775
1.034295,-6.842628,-1.790863,0.0,49.837482,24.017632,342.0,NaN,2.736,16.0,0.0,15 / 15,274032,2020-03-15 11:55:38:276
2.619257,-13.479356,-0.579397,0.0,49.837482,24.017632,342.0,NaN,2.736,16.0,0.0,15 / 15,274532,2020-03-15 11:55:38:776
1.642422,-2.059013,23.745693,0.0,49.837482,24.017632,342.0,NaN,2.736,16.0,0.0,15 / 15,275032,2020-03-15 11:55:39:276
4.525041,-11.449073,-1.551443,0.0,49.837482,24.017632,342.0,NaN,2.736,16.0,0.0,15 / 15,275531,2020-03-15 11:55:39:775
6.359,-5.104438,-7.943961,0.0,49.837482,24.017632,342.0,NaN,2.736,16.0,0.0,15 / 15,276032,2020-03-15 11:55:40:276
2.743755,-8.111555,-0.59855,0.0,49.837482,24.017632,342.0,NaN,2.736,16.0,0.0,15 / 15,276532,2020-03-15 11:55:40:776
2.676718,-6.742072,0.143652,0.0,49.837482,24.017632,342.0,NaN,2.736,16.0,0.0,15 / 15,277031,2020-03-15 11:55:41:275
7.714118,-9.260772,2.207454,0.0,49.837482,24.017632,342.0,NaN,2.736,16.0,0.0,15 / 15,277532,2020-03-15 11:55:41:776
5.731719,-11.812991,-2.06859,0.0,49.837482,24.017632,342.0,NaN,2.736,16.0,0.0,15 / 15,278032,2020-03-15 11:55:42:276
2.8491,-6.349423,-11.022904,0.0,49.837482,24.017632,342.0,NaN,2.736,16.0,0.0,15 / 15,278532,2020-03-15 11:55:42:776
1.187524,-7.038953,-0.818817,0.0,49.837482,24.017632,342.0,NaN,2.736,16.0,0.0,15 / 15,279031,2020-03-15 11:55:43:275
-0.129287,-13.924677,-2.27928,0.0,49.837482,24.017632,342.0,NaN,2.736,16.0,0.0,15 / 15,279532,2020-03-15 11:55:43:776
0.138864,-9.921572,-0.138864,0.0,49.837482,24.017632,342.0,NaN,2.736,16.0,0.0,15 / 15,280032,2020-03-15 11:55:44:276
2.154782,-13.22557,-2.379836,0.0,49.837482,24.017632,342.0,NaN,2.736,16.0,0.0,15 / 15,280532,2020-03-15 11:55:44:776
2.715025,-7.747637,-9.064447,0.0,49.837482,24.017632,342.0,NaN,2.736,16.0,0.0,15 / 15,281031,2020-03-15 11:55:45:275
1.723825,-8.90643,-0.124498,0.0,49.837482,24.017632,342.0,NaN,2.736,16.0,0.0,15 / 15,281532,2020-03-15 11:55:45:776
5.76045,-8.872911,0.675165,0.0,49.837482,24.017632,342.0,NaN,2.736,16.0,0.0,15 / 15,282032,2020-03-15 11:55:46:276
6.612785,-11.903971,-0.086191,0.0,49.837482,24.017632,342.0,NaN,2.736,16.0,0.0,15 / 15,282532,2020-03-15 11:55:46:776
2.217031,-11.903971,-1.599327,0.0,49.837482,24.017632,342.0,NaN,2.736,16.0,0.0,15 / 15,283031,2020-03-15 11:55:47:275
-0.861913,-4.783615,0.78051,0.0,49.837482,24.017632,342.0,NaN,2.736,16.0,0.0,15 / 15,283532,2020-03-15 11:55:47:776
0.694319,-8.264784,1.513135,0.0,49.837482,24.017632,342.0,NaN,2.736,16.0,0.0,15 / 15,284032,2020-03-15 11:55:48:276
1.982399,-6.890512,-0.430956,0.0,49.837482,24.017632,342.0,NaN,2.736,16.0,0.0,15 / 15,284531,2020-03-15 11:55:48:775
6.737284,-12.138602,-1.134852,0.0,49.837482,24.017632,342.0,NaN,2.736,16.0,0.0,15 / 15,285032,2020-03-15 11:55:49:276
4.553772,-13.326127,-3.672705,0.0,49.837482,24.017632,342.0,NaN,2.736,16.0,0.0,15 / 15,285531,2020-03-15 11:55:49:775
2.82037,-9.275137,-11.841722,0.0,49.837482,24.017632,342.0,NaN,2.736,16.0,0.0,15 / 15,286032,2020-03-15 11:55:50:276
1.929727,-7.637503,-0.407014,0.0,49.837482,24.017632,342.0,NaN,2.736,16.0,0.0,15 / 15,286532,2020-03-15 11:55:50:776
3.572149,-10.524911,-0.081403,0.0,49.837482,24.017632,342.0,NaN,2.736,16.0,0.0,15 / 15,287032,2020-03-15 11:55:51:276
4.999093,-5.224148,-2.288857,0.0,49.837482,24.017632,342.0,NaN,2.736,16.0,0.0,15 / 15,287531,2020-03-15 11:55:51:775
1.254562,-14.369999,2.542642,0.0,49.837482,24.017632,342.0,NaN,2.736,16.0,0.0,15 / 15,288032,2020-03-15 11:55:52:276
5.6982,-13.64695,-8.973468,0.0,49.837482,24.017632,342.0,NaN,2.736,16.0,0.0,15 / 15,288532,2020-03-15 11:55:52:776
6.890513,-9.682152,-5.094861,0.0,49.837482,24.017632,342.0,NaN,2.736,16.0,0.0,15 / 15,289032,2020-03-15 11:55:53:276
-0.521936,-4.103661,0.493206,0.0,49.837482,24.017632,342.0,NaN,2.736,16.0,0.0,15 / 15,289531,2020-03-15 11:55:53:775
0.847547,-10.409989,-0.258574,0.0,49.837482,24.017632,342.0,NaN,2.736,16.0,0.0,15 / 15,290032,2020-03-15 11:55:54:276
-0.550666,-14.097059,4.003105,0.0,49.837482,24.017632,342.0,NaN,2.736,16.0,0.0,15 / 15,290532,2020-03-15 11:55:54:776
4.141969,-15.112201,-14.317327,0.0,49.837482,24.017632,342.0,NaN,2.736,16.0,0.0,15 / 15,291032,2020-03-15 11:55:55:276
5.00867,-10.304645,-2.106897,0.0,49.837482,24.017632,342.0,NaN,2.736,16.0,0.0,15 / 15,291532,2020-03-15 11:55:55:776
3.246538,-9.792285,-9.41879,0.0,49.837482,24.017632,342.0,NaN,2.736,16.0,0.0,15 / 15,292032,2020-03-15 11:55:56:276
1.872266,-8.418014,0.775721,0.0,49.837482,24.017632,342.0,NaN,2.736,16.0,0.0,15 / 15,292532,2020-03-15 11:55:56:776
3.361459,-6.095637,0.632069,0.0,49.837482,24.017632,342.0,NaN,2.736,16.0,0.0,15 / 15,293031,2020-03-15 11:55:57:275
4.812346,-9.821015,1.814805,0.0,49.837482,24.017632,342.0,NaN,2.736,16.0,0.0,15 / 15,293532,2020-03-15 11:55:57:776
6.248867,-13.024457,-4.568136,0.0,49.837482,24.017632,342.0,NaN,2.736,16.0,0.0,15 / 15,294032,2020-03-15 11:55:58:276
4.683059,-5.080496,-4.635174,0.0,49.837482,24.017632,342.0,NaN,2.736,16.0,0.0,15 / 15,294532,2020-03-15 11:55:58:776
1.067814,-9.409213,-0.895431,0.0,49.837482,24.017632,342.0,NaN,2.736,16.0,0.0,15 / 15,295031,2020-03-15 11:55:59:275
-1.35033,-4.046201,1.403002,0.0,49.837482,24.017632,342.0,NaN,2.736,16.0,0.0,15 / 15,295532,2020-03-15 11:55:59:776
1.805228,-8.082824,1.302446,0.0,49.837482,24.017632,342.0,NaN,2.736,16.0,0.0,15 / 15,296032,2020-03-15 11:56:00:276
4.797981,-7.656657,0.191536,0.0,49.837482,24.017632,342.0,NaN,2.736,16.0,0.0,15 / 15,296531,2020-03-15 11:56:00:775
6.579266,-12.904747,-2.595315,0.0,49.837482,24.017632,342.0,NaN,2.736,16.0,0.0,15 / 15,297032,2020-03-15 11:56:01:276
7.053318,-13.302185,-1.790863,0.0,49.837482,24.017632,342.0,NaN,2.736,16.0,0.0,15 / 15,297532,2020-03-15 11:56:01:776
4.027047,-9.011775,-11.305421,0.0,49.837482,24.017632,342.0,NaN,2.736,16.0,0.0,15 / 15,298032,2020-03-15 11:56:02:276
2.183512,-7.5561,-0.296881,0.0,49.837482,24.017632,342.0,NaN,2.736,16.0,0.0,15 / 15,298531,2020-03-15 11:56:02:775
6.359,-7.331045,0.402226,0.0,49.837482,24.017632,342.0,NaN,2.736,16.0,0.0,15 / 15,299032,2020-03-15 11:56:03:276
6.076484,-12.86644,-5.171476,0.0,49.837482,24.017632,342.0,NaN,2.736,16.0,0.0,0 / 0,299532,2020-03-15 11:56:03:776
-0.823605,-15.562311,-2.451662,0.0,49.837482,24.017632,342.0,NaN,2.736,16.0,0.0,0 / 0,300032,2020-03-15 11:56:04:276
-8.197746,-8.714894,-9.399636,0.0,49.837482,24.017632,342.0,NaN,2.736,16.0,0.0,0 / 0,300532,2020-03-15 11:56:04:776
6.124368,-12.579136,-1.714248,0.0,49.837482,24.017632,342.0,NaN,2.736,16.0,0.0,0 / 1,301031,2020-03-15 11:56:05:275
1.177947,-4.19943,-0.258574,0.0,49.837482,24.017632,342.0,NaN,2.736,16.0,0.0,0 / 2,301532,2020-03-15 11:56:05:776
5.061342,-8.183381,-1.369483,0.0,49.837482,24.017632,342.0,NaN,2.736,16.0,0.0,0 / 2,302032,2020-03-15 11:56:06:276
-0.828394,-13.680469,-2.145205,0.0,49.837482,24.017632,342.0,NaN,2.736,16.0,0.0,0 / 11,302532,2020-03-15 11:56:06:776
-5.655104,-4.764461,2.389413,0.0,49.837482,24.017632,342.0,NaN,2.736,16.0,0.0,0 / 11,303031,2020-03-15 11:56:07:275
0.852336,-13.565547,-3.596091,0.0,49.837482,24.017632,342.0,NaN,2.736,16.0,0.0,0 / 11,303532,2020-03-15 11:56:07:776
0.924162,-4.185065,-0.933739,0.0,49.83783,24.018187,342.0,NaN,0.504,12.5,0.0,12 / 12,304031,2020-03-15 11:56:08:275
5.597644,-9.639056,-2.590526,0.0,49.83783,24.018187,342.0,NaN,0.504,12.5,0.0,12 / 12,304532,2020-03-15 11:56:08:776
0.277727,-4.568136,0.986411,0.0,49.83783,24.018187,342.0,NaN,0.504,12.5,0.0,12 / 12,305032,2020-03-15 11:56:09:276
-1.561019,-8.571242,-0.766144,0.0,49.83783,24.018187,342.0,NaN,0.504,12.5,0.0,12 / 12,305532,2020-03-15 11:56:09:776
1.790863,-12.373235,0.229843,0.0,49.83783,24.018187,342.0,NaN,0.504,12.5,0.0,12 / 12,306031,2020-03-15 11:56:10:275
3.787627,-3.734954,-5.482722,0.0,49.83783,24.018187,342.0,NaN,0.504,12.5,0.0,12 / 12,306532,2020-03-15 11:56:10:776
5.315128,-9.428367,-0.56982,0.0,49.83783,24.018187,342.0,NaN,0.504,12.5,0.0,12 / 12,307032,2020-03-15 11:56:11:276
-2.442086,-5.085284,1.249773,0.0,49.83783,24.018187,342.0,NaN,0.504,12.5,0.0,12 / 12,307531,2020-03-15 11:56:11:775
-1.13964,-9.916783,0.78051,0.0,49.83783,24.018187,342.0,NaN,0.504,12.5,0.0,12 / 12,308031,2020-03-15 11:56:12:275
1.326388,-5.506664,0.335188,0.0,49.83783,24.018187,342.0,NaN,0.504,12.5,0.0,12 / 12,308532,2020-03-15 11:56:12:776
4.960786,-10.496181,0.737414,0.0,49.83783,24.018187,342.0,NaN,0.504,12.5,0.0,12 / 12,309032,2020-03-15 11:56:13:276
0.770933,-12.856863,-4.850652,0.0,49.83783,24.018187,342.0,NaN,0.504,12.5,0.0,12 / 12,309531,2020-03-15 11:56:13:775
1.805228,-8.51857,-5.525817,0.0,49.83783,24.018187,342.0,NaN,0.504,12.5,0.0,12 / 12,310032,2020-03-15 11:56:14:276
5.075708,-9.80665,-3.471592,0.0,49.83783,24.018187,342.0,NaN,0.504,12.5,0.0,12 / 12,310532,2020-03-15 11:56:14:776
-1.403002,-3.754108,1.067814,0.0,49.83783,24.018187,342.0,NaN,0.504,12.5,0.0,12 / 12,311032,2020-03-15 11:56:15:276
-0.962469,-9.950302,-0.847547,0.0,49.83783,24.018187,342.0,NaN,0.504,12.5,0.0,12 / 12,311532,2020-03-15 11:56:15:776
-1.723825,-14.595054,-1.70946,0.0,49.83783,24.018187,342.0,NaN,0.504,12.5,0.0,12 / 12,312031,2020-03-15 11:56:16:275
-1.656788,-8.796297,0.038307,0.0,49.83783,24.018187,342.0,NaN,0.504,12.5,0.0,12 / 12,312532,2020-03-15 11:56:16:776
-0.35913,-12.694057,0.842759,0.0,49.83783,24.018187,342.0,NaN,0.504,12.5,0.0,12 / 12,313032,2020-03-15 11:56:17:276
2.590526,-8.762778,-5.808333,0.0,49.83783,24.018187,342.0,NaN,0.504,12.5,0.0,12 / 12,313532,2020-03-15 11:56:17:776
5.961562,-9.758766,-1.441309,0.0,49.83783,24.018187,342.0,NaN,0.504,12.5,0.0,12 / 12,314031,2020-03-15 11:56:18:275
-0.885855,-3.05979,2.173935,0.0,49.83783,24.018187,342.0,NaN,0.504,12.5,0.0,12 / 12,314532,2020-03-15 11:56:18:776
-1.283292,-9.136273,-0.402226,0.0,49.83783,24.018187,342.0,NaN,0.504,12.5,0.0,12 / 12,315032,2020-03-15 11:56:19:276
-1.982399,-14.528016,2.715025,0.0,49.83783,24.018187,342.0,NaN,0.504,12.5,0.0,12 / 12,315532,2020-03-15 11:56:19:776
2.513912,-18.35395,-12.018892,0.0,49.83783,24.018187,342.0,NaN,0.504,12.5,0.0,12 / 12,316032,2020-03-15 11:56:20:276
-0.23942,-11.93749,-4.94642,0.0,49.83783,24.018187,342.0,NaN,0.504,12.5,0.0,12 / 12,316532,2020-03-15 11:56:20:776
6.100426,-7.852981,-5.506664,0.0,49.83783,24.018187,342.0,NaN,0.504,12.5,0.0,12 / 12,317032,2020-03-15 11:56:21:276
3.481169,-9.797073,-3.131616,0.0,49.83783,24.018187,342.0,NaN,0.504,12.5,0.0,12 / 12,317532,2020-03-15 11:56:21:776
-2.102109,-4.036624,1.039084,0.0,49.83783,24.018187,342.0,NaN,0.504,12.5,0.0,12 / 12,318032,2020-03-15 11:56:22:276
-0.033519,-10.127473,0.110133,0.0,49.83783,24.018187,342.0,NaN,0.504,12.5,0.0,12 / 12,318532,2020-03-15 11:56:22:776
0.976834,-12.694057,3.888184,0.0,49.83783,24.018187,342.0,NaN,0.504,12.5,0.0,12 / 12,319031,2020-03-15 11:56:23:275
3.529053,-16.46253,-5.252878,0.0,49.83783,24.018187,342.0,NaN,0.504,12.5,0.0,12 / 12,319532,2020-03-15 11:56:23:776
7.963115,-11.137826,-2.461239,0.0,49.83783,24.018187,342.0,NaN,0.504,12.5,0.0,12 / 12,320032,2020-03-15 11:56:24:276
1.221043,-3.945644,-5.655104,0.0,49.83783,24.018187,342.0,NaN,0.504,12.5,0.0,12 / 12,320532,2020-03-15 11:56:24:776
1.278504,-9.217676,0.483629,0.0,49.83783,24.018187,342.0,NaN,0.504,12.5,0.0,12 / 12,321031,2020-03-15 11:56:25:275
-0.68953,-4.481945,1.877054,0.0,49.83783,24.018187,342.0,NaN,0.504,12.5,0.0,12 / 12,321532,2020-03-15 11:56:25:776
-0.023942,-10.036493,-1.221043,0.0,49.83783,24.018187,342.0,NaN,0.504,12.5,0.0,12 / 12,322032,2020-03-15 11:56:26:276
1.671153,-17.353174,3.399767,0.0,49.83783,24.018187,342.0,NaN,0.504,12.5,0.0,12 / 12,322532,2020-03-15 11:56:26:776
0.296881,-8.149862,-4.357447,0.0,49.83783,24.018187,342.0,NaN,0.504,12.5,0.0,12 / 12,323032,2020-03-15 11:56:27:276
1.642422,-9.993398,-3.739743,0.0,49.83783,24.018187,342.0,NaN,0.504,12.5,0.0,12 / 12,323532,2020-03-15 11:56:27:776
1.68073,-4.084508,1.082179,0.0,49.83783,24.018187,342.0,NaN,0.504,12.5,0.0,12 / 12,324032,2020-03-15 11:56:28:276
0.311246,-8.858546,0.933739,0.0,49.83783,24.018187,342.0,NaN,0.504,12.5,0.0,12 / 12,324531,2020-03-15 11:56:28:775
0.11971,-3.696647,0.92895,0.0,49.83783,24.018187,342.0,NaN,0.504,12.5,0.0,12 / 12,325032,2020-03-15 11:56:29:276
-0.871489,-10.328587,-2.126051,0.0,49.83783,24.018187,342.0,NaN,0.504,12.5,0.0,12 / 12,325532,2020-03-15 11:56:29:776
1.077391,-15.045163,6.105214,0.0,49.83783,24.018187,342.0,NaN,0.504,12.5,0.0,12 / 12,326032,2020-03-15 11:56:30:276
-2.552219,-15.409082,-10.936713,0.0,49.83783,24.018187,342.0,NaN,0.504,12.5,0.0,12 / 12,326531,2020-03-15 11:56:30:775
4.807557,-13.843274,-2.145205,0.0,49.83783,24.018187,342.0,NaN,0.504,12.5,0.0,12 / 12,327032,2020-03-15 11:56:31:276
0.02873,-3.98874,-1.412579,0.0,49.83783,24.018187,342.0,NaN,0.504,12.5,0.0,12 / 12,327532,2020-03-15 11:56:31:776
0.995988,-10.596737,-0.684742,0.0,49.83783,24.018187,342.0,NaN,0.504,12.5,0.0,12 / 12,328031,2020-03-15 11:56:32:275
1.905785,-6.263232,-0.076614,0.0,49.83783,24.018187,342.0,NaN,0.504,12.5,0.0,12 / 12,328532,2020-03-15 11:56:32:776
2.193089,-10.898406,1.82917,0.0,49.83783,24.018187,342.0,NaN,0.504,12.5,0.0,12 / 12,329032,2020-03-15 11:56:33:276
2.801216,-14.020445,-3.835511,0.0,49.83783,24.018187,342.0,NaN,0.504,12.5,0.0,12 / 12,329532,2020-03-15 11:56:33:776
-1.015141,-7.465121,-5.975927,0.0,49.83783,24.018187,342.0,NaN,0.504,12.5,0.0,12 / 12,330031,2020-03-15 11:56:34:275
1.417368,-7.8865,1.886631,0.0,49.83783,24.018187,342.0,NaN,0.504,12.5,0.0,12 / 12,330532,2020-03-15 11:56:34:776
2.964022,-7.259219,-0.411803,0.0,49.83783,24.018187,342.0,NaN,0.504,12.5,0.0,12 / 12,331032,2020-03-15 11:56:35:276
4.486734,-12.473791,-9.471462,0.0,49.83783,24.018187,342.0,NaN,0.504,12.5,0.0,12 / 12,331532,2020-03-15 11:56:35:776
3.562572,-16.103401,-4.865018,0.0,49.83783,24.018187,342.0,NaN,0.504,12.5,0.0,12 / 12,332032,2020-03-15 11:56:36:276
3.083732,-10.836157,6.086061,0.0,49.83783,24.018187,342.0,NaN,0.504,12.5,0.0,12 / 12,332532,2020-03-15 11:56:36:776
1.072602,-13.220781,-1.996764,0.0,49.83783,24.018187,342.0,NaN,0.504,12.5,0.0,12 / 12,333032,2020-03-15 11:56:37:276
0.948104,-6.320692,-6.205771,0.0,49.83783,24.018187,342.0,NaN,0.504,12.5,0.0,12 / 12,333531,2020-03-15 11:56:37:775
1.584962,-8.403648,-1.297657,0.0,49.83783,24.018187,342.0,NaN,0.504,12.5,0.0,12 / 12,334032,2020-03-15 11:56:38:276
-1.58975,-11.334151,-0.641646,0.0,49.83783,24.018187,342.0,NaN,0.504,12.5,0.0,12 / 12,334532,2020-03-15 11:56:38:776
-11.884817,-0.948104,0.526724,0.0,49.83783,24.018187,342.0,NaN,0.504,12.5,0.0,12 / 12,335032,2020-03-15 11:56:39:276
0.483629,-12.598289,-1.924938,0.0,49.83783,24.018187,342.0,NaN,0.504,12.5,0.0,12 / 12,335532,2020-03-15 11:56:39:776
0.632069,-5.841852,-4.812345,0.0,49.83783,24.018187,342.0,NaN,0.504,12.5,0.0,12 / 12,336032,2020-03-15 11:56:40:276
4.314352,-10.754754,-2.552219,0.0,49.83783,24.018187,342.0,NaN,0.504,12.5,0.0,12 / 12,336532,2020-03-15 11:56:40:776
-2.111686,-3.198653,2.044648,0.0,49.83783,24.018187,342.0,NaN,0.504,12.5,0.0,12 / 12,337031,2020-03-15 11:56:41:275
-0.474052,-10.132261,-1.714248,0.0,49.83783,24.018187,342.0,NaN,0.504,12.5,0.0,12 / 12,337532,2020-03-15 11:56:41:776
-1.316811,-14.465767,6.224925,0.0,49.83783,24.018187,342.0,NaN,0.504,12.5,0.0,12 / 12,338032,2020-03-15 11:56:42:276
-4.477157,-14.5759,-11.03727,0.0,49.83783,24.018187,342.0,NaN,0.504,12.5,0.0,12 / 12,338532,2020-03-15 11:56:42:776
1.872266,-10.912771,-5.00867,0.0,49.83783,24.018187,342.0,NaN,0.504,12.5,0.0,12 / 12,339032,2020-03-15 11:56:43:276
-1.374272,-2.810793,1.517924,0.0,49.83783,24.018187,342.0,NaN,0.504,12.5,0.0,12 / 12,339532,2020-03-15 11:56:43:776
-1.273715,-9.457097,0.21069,0.0,49.83783,24.018187,342.0,NaN,0.504,12.5,0.0,12 / 12,340032,2020-03-15 11:56:44:276
0.23942,-5.899313,0.713472,0.0,49.83783,24.018187,342.0,NaN,0.504,12.5,0.0,12 / 12,340531,2020-03-15 11:56:44:775
0.933739,-9.969456,-0.071826,0.0,49.83783,24.018187,342.0,NaN,0.504,12.5,0.0,12 / 12,341032,2020-03-15 11:56:45:276
1.556231,-14.733917,-4.46758,0.0,49.83783,24.018187,342.0,NaN,0.504,12.5,0.0,12 / 12,341532,2020-03-15 11:56:45:776
-0.363919,-11.425131,-13.244724,0.0,49.83783,24.018187,342.0,NaN,0.504,12.5,0.0,12 / 12,342032,2020-03-15 11:56:46:276
0.454898,-8.279149,0.316035,0.0,49.83783,24.018187,342.0,NaN,0.504,12.5,0.0,12 / 12,342531,2020-03-15 11:56:46:775
1.225831,-8.485051,-1.647211,0.0,49.83783,24.018187,342.0,NaN,0.504,12.5,0.0,12 / 12,343032,2020-03-15 11:56:47:276
1.01993,-13.872005,-8.24563,0.0,49.83783,24.018187,342.0,NaN,0.504,12.5,0.0,12 / 12,343532,2020-03-15 11:56:47:776
3.184288,-15.753847,-2.044648,0.0,49.83783,24.018187,342.0,NaN,0.504,12.5,0.0,12 / 12,344031,2020-03-15 11:56:48:275
2.1883,0.344765,15.32768,0.0,49.83783,24.018187,342.0,NaN,0.504,12.5,0.0,12 / 12,344532,2020-03-15 11:56:48:776
-1.369483,-12.914324,-2.523488,0.0,49.83783,24.018187,342.0,NaN,0.504,12.5,0.0,12 / 12,345032,2020-03-15 11:56:49:276
-0.387861,-4.817134,-0.162806,0.0,49.83783,24.018187,342.0,NaN,0.504,12.5,0.0,12 / 12,345531,2020-03-15 11:56:49:775
3.763685,-9.26556,-1.575385,0.0,49.83783,24.018187,342.0,NaN,0.504,12.5,0.0,12 / 12,346032,2020-03-15 11:56:50:276
-3.916914,-14.331692,-2.097321,0.0,49.83783,24.018187,342.0,NaN,0.504,12.5,0.0,12 / 12,346532,2020-03-15 11:56:50:776
-1.254562,-3.20823,5.257667,0.0,49.83783,24.018187,342.0,NaN,0.504,12.5,0.0,12 / 12,347032,2020-03-15 11:56:51:276
0.344765,-13.704411,-1.733402,0.0,49.83783,24.018187,342.0,NaN,0.504,12.5,0.0,12 / 12,347531,2020-03-15 11:56:51:775
0.464475,-7.776367,-8.63828,0.0,49.83783,24.018187,342.0,NaN,0.504,12.5,0.0,12 / 12,348032,2020-03-15 11:56:52:276
3.620033,-11.496957,-0.488417,0.0,49.83783,24.018187,342.0,NaN,0.504,12.5,0.0,12 / 12,348532,2020-03-15 11:56:52:776
-1.68073,-2.236184,1.963245,0.0,49.83783,24.018187,342.0,NaN,0.504,12.5,0.0,12 / 12,349032,2020-03-15 11:56:53:276
3.763685,-10.400413,-1.752556,0.0,49.83783,24.018187,342.0,NaN,0.504,12.5,0.0,12 / 12,349531,2020-03-15 11:56:53:775
-4.247314,-13.857639,-2.03986,0.0,49.83783,24.018187,342.0,NaN,0.504,12.5,0.0,12 / 12,350031,2020-03-15 11:56:54:275
-10.414778,1.23062,7.771579,0.0,49.83783,24.018187,342.0,NaN,0.504,12.5,0.0,12 / 12,350532,2020-03-15 11:56:54:776
-0.78051,-14.073117,0.201113,0.0,49.83783,24.018187,342.0,NaN,0.504,12.5,0.0,12 / 12,351032,2020-03-15 11:56:55:276
-1.307234,-9.495404,-13.972561,0.0,49.83783,24.018187,342.0,NaN,0.504,12.5,0.0,12 / 12,351532,2020-03-15 11:56:55:776
0.837971,-7.52737,1.493982,0.0,49.83783,24.018187,342.0,NaN,0.504,12.5,0.0,12 / 12,352032,2020-03-15 11:56:56:276
1.091756,-5.544971,-4.232949,0.0,49.83783,24.018187,342.0,NaN,0.504,12.5,0.0,12 / 12,352531,2020-03-15 11:56:56:775
-1.388637,-7.852981,-2.126051,0.0,49.83783,24.018187,342.0,NaN,0.504,12.5,0.0,12 / 12,353032,2020-03-15 11:56:57:276
1.489194,-9.768343,-0.502782,0.0,49.83783,24.018187,342.0,NaN,0.504,12.5,0.0,12 / 12,353532,2020-03-15 11:56:57:776
-0.11971,-8.030152,-1.489193,0.0,49.83783,24.018187,342.0,NaN,0.504,12.5,0.0,12 / 12,354032,2020-03-15 11:56:58:276
-1.130063,-13.680469,-3.083732,0.0,49.83783,24.018187,342.0,NaN,0.504,12.5,0.0,12 / 12,354531,2020-03-15 11:56:58:775
-0.933739,-8.116343,-10.759542,0.0,49.83783,24.018187,342.0,NaN,0.504,12.5,0.0,12 / 12,355032,2020-03-15 11:56:59:276
-0.890643,-8.389283,-0.665588,0.0,49.83783,24.018187,342.0,NaN,0.504,12.5,0.0,12 / 12,355532,2020-03-15 11:56:59:776
2.810793,-7.536947,0.325611,0.0,49.83783,24.018187,342.0,NaN,0.504,12.5,0.0,12 / 12,356032,2020-03-15 11:57:00:276
0.057461,-8.197746,-1.905785,0.0,49.83783,24.018187,342.0,NaN,0.504,12.5,0.0,12 / 12,356531,2020-03-15 11:57:00:775
-2.844312,-12.47858,-0.727837,0.0,49.83783,24.018187,342.0,NaN,0.504,12.5,0.0,12 / 12,357032,2020-03-15 11:57:01:276
-3.236961,-1.024718,6.21056,0.0,49.83783,24.018187,342.0,NaN,0.504,12.5,0.0,12 / 12,357532,2020-03-15 11:57:01:776
-0.158017,-12.717999,-1.149217,0.0,49.83783,24.018187,342.0,NaN,0.504,12.5,0.0,12 / 12,358032,2020-03-15 11:57:02:276
-1.666364,-8.671799,-9.56723,0.0,49.83783,24.018187,342.0,NaN,0.504,12.5,0.0,12 / 12,358532,2020-03-15 11:57:02:776
-1.154005,-7.675811,-2.149993,0.0,49.83783,24.018187,342.0,NaN,0.504,12.5,0.0,12 / 12,359031,2020-03-15 11:57:03:275
5.200207,-8.700529,0.397437,0.0,49.83783,24.018187,342.0,NaN,0.504,12.5,0.0,12 / 12,359532,2020-03-15 11:57:03:776
-0.02873,-6.50744,0.296881,0.0,49.83783,24.018187,342.0,NaN,0.504,12.5,0.0,12 / 12,360032,2020-03-15 11:57:04:276
3.548207,-9.557653,0.019154,0.0,49.83783,24.018187,342.0,NaN,0.504,12.5,0.0,12 / 12,360532,2020-03-15 11:57:04:776
0.790087,-8.973468,-0.78051,0.0,49.83783,24.018187,342.0,NaN,0.504,12.5,0.0,12 / 12,361031,2020-03-15 11:57:05:275
-1.810016,-14.958972,-5.15711,0.0,49.83783,24.018187,342.0,NaN,0.504,12.5,0.0,12 / 12,361532,2020-03-15 11:57:05:776
-0.991199,-6.119579,-6.382941,0.0,49.83783,24.018187,342.0,NaN,0.504,12.5,0.0,12 / 12,362032,2020-03-15 11:57:06:276
-2.628833,-9.174581,-0.363919,0.0,49.83783,24.018187,342.0,NaN,0.504,12.5,0.0,12 / 12,362531,2020-03-15 11:57:06:775
-1.752556,-5.204994,1.35033,0.0,49.83783,24.018187,342.0,NaN,0.504,12.5,0.0,12 / 12,363032,2020-03-15 11:57:07:276
-0.579397,-9.873688,-0.272939,0.0,49.83783,24.018187,342.0,NaN,0.504,12.5,0.0,12 / 12,363532,2020-03-15 11:57:07:776
0.043096,-13.570335,-3.945644,0.0,49.83783,24.018187,342.0,NaN,0.504,12.5,0.0,12 / 12,364032,2020-03-15 11:57:08:276
-4.050989,-0.387861,8.360553,0.0,49.83783,24.018187,342.0,NaN,0.504,12.5,0.0,12 / 12,364532,2020-03-15 11:57:08:776
-1.608903,-12.933477,-1.924938,0.0,49.83783,24.018187,342.0,NaN,0.504,12.5,0.0,12 / 12,365031,2020-03-15 11:57:09:275
0.004788,-6.722918,-6.08606,0.0,49.83783,24.018187,342.0,NaN,0.504,12.5,0.0,12 / 12,365532,2020-03-15 11:57:09:776
-0.23942,-7.460332,-1.843535,0.0,49.83783,24.018187,342.0,NaN,0.504,12.5,0.0,12 / 12,366032,2020-03-15 11:57:10:276
-4.252102,-12.339716,-1.101333,0.0,49.83783,24.018187,342.0,NaN,0.504,12.5,0.0,12 / 12,366531,2020-03-15 11:57:10:775
-6.311115,-6.153098,8.183381,0.0,49.83783,24.018187,342.0,NaN,0.504,12.5,0.0,12 / 12,367032,2020-03-15 11:57:11:276
-2.298433,-13.412318,0.636858,0.0,49.83783,24.018187,342.0,NaN,0.504,12.5,0.0,12 / 12,367532,2020-03-15 11:57:11:776
-0.742202,-4.965574,-2.748543,0.0,49.83783,24.018187,342.0,NaN,0.504,12.5,0.0,12 / 12,368031,2020-03-15 11:57:12:275
0.526724,-10.366894,-1.699883,0.0,49.83783,24.018187,342.0,NaN,0.504,12.5,0.0,12 / 12,368532,2020-03-15 11:57:12:776
-0.512359,-4.271256,2.269703,0.0,49.83783,24.018187,342.0,NaN,0.504,12.5,0.0,12 / 12,369032,2020-03-15 11:57:13:276
-2.983175,-9.864111,0.248997,0.0,49.83783,24.018187,342.0,NaN,0.504,12.5,0.0,12 / 12,369532,2020-03-15 11:57:13:776
-1.244985,-11.496957,-0.067038,0.0,49.83783,24.018187,342.0,NaN,0.504,12.5,0.0,12 / 12,370032,2020-03-15 11:57:14:276
-0.56982,-6.737283,-5.372588,0.0,49.83783,24.018187,342.0,NaN,0.504,12.5,0.0,12 / 12,370531,2020-03-15 11:57:14:775
-1.671153,-10.175357,-0.895431,0.0,49.83783,24.018187,342.0,NaN,0.504,12.5,0.0,12 / 12,371032,2020-03-15 11:57:15:276
-1.628057,-3.193865,2.197877,0.0,49.83783,24.018187,342.0,NaN,0.504,12.5,0.0,12 / 12,371532,2020-03-15 11:57:15:776
-3.672705,-9.279925,-1.101333,0.0,49.83783,24.018187,342.0,NaN,0.504,12.5,0.0,12 / 12,372031,2020-03-15 11:57:16:275
1.058237,-6.368576,1.996764,0.0,49.83783,24.018187,342.0,NaN,0.504,12.5,0.0,12 / 12,372531,2020-03-15 11:57:16:775
-3.246537,-9.672575,-0.196325,0.0,49.83783,24.018187,342.0,NaN,0.504,12.5,0.0,12 / 12,373032,2020-03-15 11:57:17:276
0.9912,-14.197616,-2.987964,0.0,49.83783,24.018187,342.0,NaN,0.504,12.5,0.0,12 / 12,373532,2020-03-15 11:57:17:776
-3.016694,-8.781932,-12.885593,0.0,49.83783,24.018187,342.0,NaN,0.504,12.5,0.0,12 / 12,374032,2020-03-15 11:57:18:276
-1.987187,-5.947197,-2.911349,0.0,49.83783,24.018187,342.0,NaN,0.504,12.5,0.0,12 / 12,374532,2020-03-15 11:57:18:776
-0.967257,-12.397177,-1.776498,0.0,49.83783,24.018187,342.0,NaN,0.504,12.5,0.0,12 / 12,375032,2020-03-15 11:57:19:276
0.68953,-0.474052,9.279925,0.0,49.83783,24.018187,342.0,NaN,0.504,12.5,0.0,12 / 12,375532,2020-03-15 11:57:19:776
-0.110133,-10.070012,-0.320823,0.0,49.83783,24.018187,342.0,NaN,0.504,12.5,0.0,12 / 12,376032,2020-03-15 11:57:20:276
-1.575385,-7.795521,-7.000645,0.0,49.83783,24.018187,342.0,NaN,0.504,12.5,0.0,12 / 12,376531,2020-03-15 11:57:20:775
-0.397437,-10.13705,-0.828394,0.0,49.83783,24.018187,342.0,NaN,0.504,12.5,0.0,12 / 12,377034,2020-03-15 11:57:21:278
-1.364695,-13.000515,-3.251326,0.0,49.83783,24.018187,342.0,NaN,0.504,12.5,0.0,12 / 12,377532,2020-03-15 11:57:21:776
-2.719813,-10.606314,-8.652645,0.0,49.83783,24.018187,342.0,NaN,0.504,12.5,0.0,12 / 12,378032,2020-03-15 11:57:22:276
-0.952892,-8.671799,0.186748,0.0,49.83783,24.018187,342.0,NaN,0.504,12.5,0.0,0 / 0,378532,2020-03-15 11:57:22:776
3.026271,-9.739613,0.306458,0.0,49.83783,24.018187,342.0,NaN,0.504,12.5,0.0,0 / 0,379031,2020-03-15 11:57:23:275
3.983952,-12.378023,-0.220267,0.0,49.83783,24.018187,342.0,NaN,0.504,12.5,0.0,0 / 3,379532,2020-03-15 11:57:23:776
2.27928,-14.743494,-2.853888,0.0,49.83783,24.018187,342.0,NaN,0.504,12.5,0.0,0 / 3,380032,2020-03-15 11:57:24:276
-1.795651,-2.221819,15.495274,0.0,49.83783,24.018187,342.0,NaN,0.504,12.5,0.0,0 / 5,380532,2020-03-15 11:57:24:776
-0.517148,-12.837709,0.263362,0.0,49.83783,24.018187,342.0,NaN,0.504,12.5,0.0,0 / 5,381032,2020-03-15 11:57:25:276
-1.896208,-5.932832,-4.845864,0.0,49.83783,24.018187,342.0,NaN,0.504,12.5,0.0,0 / 10,381532,2020-03-15 11:57:25:776
-1.80044,-7.359776,-2.169147,0.0,49.83783,24.018187,342.0,NaN,0.504,12.5,0.0,0 / 10,382032,2020-03-15 11:57:26:276
3.442862,-11.425131,1.905785,0.0,49.83783,24.018187,342.0,NaN,0.504,12.5,0.0,10 / 11,382532,2020-03-15 11:57:26:776
1.417368,-18.511967,-5.602432,0.0,49.83783,24.018187,342.0,NaN,0.504,12.5,0.0,10 / 11,383032,2020-03-15 11:57:27:276
-1.872266,-14.853627,-2.901772,0.0,49.83783,24.018187,342.0,NaN,0.504,12.5,0.0,10 / 11,383532,2020-03-15 11:57:27:776
-1.886631,-8.250418,-5.688623,0.0,49.83783,24.018187,342.0,NaN,0.504,12.5,0.0,10 / 11,384031,2020-03-15 11:57:28:275
2.413355,-10.831368,-1.742979,0.0,49.83783,24.018187,342.0,NaN,0.504,12.5,0.0,10 / 11,384532,2020-03-15 11:57:28:776
-1.431733,-9.035717,-2.935291,0.0,49.83783,24.018187,342.0,NaN,0.504,12.5,0.0,10 / 11,385032,2020-03-15 11:57:29:276
-3.682282,-8.432379,-0.497994,0.0,49.83783,24.018187,342.0,NaN,0.504,12.5,0.0,10 / 11,385531,2020-03-15 11:57:29:775
-1.61848,-4.453215,2.073379,0.0,49.83783,24.018187,342.0,NaN,0.504,12.5,0.0,10 / 11,386032,2020-03-15 11:57:30:276
-3.500323,-8.820239,1.383849,0.0,49.83783,24.018187,342.0,NaN,0.504,12.5,0.0,10 / 11,386532,2020-03-15 11:57:30:776
-2.94008,-13.029245,5.329493,0.0,49.83783,24.018187,342.0,NaN,0.504,12.5,0.0,10 / 11,387032,2020-03-15 11:57:31:276
-6.301539,-14.896723,-10.299856,0.0,49.83783,24.018187,342.0,NaN,0.504,12.5,0.0,10 / 11,387531,2020-03-15 11:57:31:775
4.611233,-11.736377,-2.274491,0.0,49.83783,24.018187,342.0,NaN,0.504,12.5,0.0,10 / 11,388032,2020-03-15 11:57:32:276
-1.699883,-2.197877,1.719037,0.0,49.83783,24.018187,342.0,NaN,0.504,12.5,0.0,10 / 11,388532,2020-03-15 11:57:32:776
1.278504,-10.754754,-5.631162,0.0,49.83783,24.018187,342.0,NaN,0.504,12.5,0.0,10 / 11,389032,2020-03-15 11:57:33:276
-1.814805,-1.527501,3.055001,0.0,49.83783,24.018187,342.0,NaN,0.504,12.5,0.0,10 / 11,389532,2020-03-15 11:57:33:776
0.464475,-10.338163,-2.126051,0.0,49.83783,24.018187,342.0,NaN,0.504,12.5,0.0,10 / 11,390032,2020-03-15 11:57:34:276
-4.692635,-16.318878,-2.293645,0.0,49.83783,24.018187,342.0,NaN,0.504,12.5,0.0,10 / 11,390532,2020-03-15 11:57:34:776
-7.144298,0.411803,4.86023,0.0,49.83783,24.018187,342.0,NaN,0.504,12.5,0.0,10 / 11,391032,2020-03-15 11:57:35:276
-2.738967,-12.751518,-3.203442,0.0,49.83783,24.018187,342.0,NaN,0.504,12.5,0.0,10 / 11,391531,2020-03-15 11:57:35:775
-4.821922,-11.7268,-8.092401,0.0,49.83783,24.018187,342.0,NaN,0.504,12.5,0.0,10 / 11,392032,2020-03-15 11:57:36:276
-0.770933,-7.402871,0.972046,0.0,49.83783,24.018187,342.0,NaN,0.504,12.5,0.0,10 / 11,392532,2020-03-15 11:57:36:776
-1.70946,-5.085284,-3.730166,0.0,49.83783,24.018187,342.0,NaN,0.504,12.5,0.0,10 / 11,393032,2020-03-15 11:57:37:276
-1.101333,-7.321469,-1.833958,0.0,49.83783,24.018187,342.0,NaN,0.504,12.5,0.0,10 / 11,393531,2020-03-15 11:57:37:775
1.355118,-10.309433,0.699107,0.0,49.83783,24.018187,342.0,NaN,0.504,12.5,0.0,10 / 11,394032,2020-03-15 11:57:38:276
7.771579,-14.130578,14.777013,0.0,49.83783,24.018187,342.0,NaN,0.504,12.5,0.0,10 / 11,394532,2020-03-15 11:57:38:776
0.651223,-17.472883,-1.584961,0.0,49.83783,24.018187,342.0,NaN,0.504,12.5,0.0,10 / 11,395031,2020-03-15 11:57:39:275
-3.500323,-9.883265,-7.110779,0.0,49.83783,24.018187,342.0,NaN,0.504,12.5,0.0,10 / 11,395532,2020-03-15 11:57:39:776
-3.074155,-7.848193,0.134075,0.0,49.83783,24.018187,342.0,NaN,0.504,12.5,0.0,10 / 11,396032,2020-03-15 11:57:40:276
-0.167594,-3.098097,2.303222,0.0,49.83783,24.018187,342.0,NaN,0.504,12.5,0.0,10 / 11,396532,2020-03-15 11:57:40:776
-0.560243,-8.010998,0.80924,0.0,49.83783,24.018187,342.0,NaN,0.504,12.5,0.0,10 / 11,397032,2020-03-15 11:57:41:276
0.474052,-7.541735,0.234632,0.0,49.83783,24.018187,342.0,NaN,0.504,12.5,0.0,10 / 11,397531,2020-03-15 11:57:41:775
3.15077,-15.619772,-2.322375,0.0,49.83783,24.018187,342.0,NaN,0.504,12.5,0.0,10 / 11,398032,2020-03-15 11:57:42:276
-0.842759,-17.549498,-2.03986,0.0,49.83783,24.018187,342.0,NaN,0.504,12.5,0.0,10 / 11,398532,2020-03-15 11:57:42:776
-3.385401,-6.727707,-2.585738,0.0,49.83783,24.018187,342.0,NaN,0.504,12.5,0.0,10 / 11,399032,2020-03-15 11:57:43:276
-3.016694,-8.920795,-1.628057,0.0,49.83783,24.018187,342.0,NaN,0.504,12.5,0.0,10 / 11,399531,2020-03-15 11:57:43:775
-0.656011,-3.093309,2.75812,0.0,49.83783,24.018187,342.0,NaN,0.504,12.5,0.0,10 / 11,400032,2020-03-15 11:57:44:276
-4.218583,-8.092401,-0.02873,0.0,49.83783,24.018187,342.0,NaN,0.504,12.5,0.0,10 / 11,400531,2020-03-15 11:57:44:775
-1.163582,-3.41892,2.217031,0.0,49.83783,24.018187,342.0,NaN,0.504,12.5,0.0,10 / 11,401032,2020-03-15 11:57:45:276
-5.765238,-8.920795,0.100556,0.0,49.83783,24.018187,342.0,NaN,0.504,12.5,0.0,10 / 11,401532,2020-03-15 11:57:45:776
-7.043741,-14.116213,0.670377,0.0,49.83783,24.018187,342.0,NaN,0.504,12.5,0.0,10 / 11,402032,2020-03-15 11:57:46:276
-3.701436,-7.082048,22.141577,0.0,49.83783,24.018187,342.0,NaN,0.504,12.5,0.0,10 / 11,402531,2020-03-15 11:57:46:775
-2.705448,-13.388376,-0.502782,0.0,49.83783,24.018187,342.0,NaN,0.504,12.5,0.0,10 / 11,403032,2020-03-15 11:57:47:276
-2.121263,-4.472368,-1.067814,0.0,49.83783,24.018187,342.0,NaN,0.504,12.5,0.0,10 / 11,403532,2020-03-15 11:57:47:776
1.249773,-8.379706,-1.944092,0.0,49.83783,24.018187,342.0,NaN,0.504,12.5,0.0,10 / 11,404031,2020-03-15 11:57:48:275
-4.113238,-11.96622,-3.543418,0.0,49.83783,24.018187,342.0,NaN,0.504,12.5,0.0,10 / 11,404532,2020-03-15 11:57:48:776
-6.675034,-8.240842,-1.556231,0.0,49.83783,24.018187,342.0,NaN,0.504,12.5,0.0,10 / 11,405032,2020-03-15 11:57:49:276
-4.328717,-15.605407,-2.255338,0.0,49.83783,24.018187,342.0,NaN,0.504,12.5,0.0,10 / 11,405532,2020-03-15 11:57:49:776
3.27048,6.258444,34.28497,0.0,49.83783,24.018187,342.0,NaN,0.504,12.5,0.0,10 / 11,406031,2020-03-15 11:57:50:275
-0.857124,-13.723564,-0.474052,0.0,49.83783,24.018187,342.0,NaN,0.504,12.5,0.0,10 / 11,406532,2020-03-15 11:57:50:776
-6.435614,-11.621455,-12.593501,0.0,49.83783,24.018187,342.0,NaN,0.504,12.5,0.0,10 / 11,407032,2020-03-15 11:57:51:276
-0.277727,-7.915231,3.648764,0.0,49.83783,24.018187,342.0,NaN,0.504,12.5,0.0,10 / 11,407531,2020-03-15 11:57:51:775
1.316811,-4.94642,2.106898,0.0,49.83783,24.018187,342.0,NaN,0.504,12.5,0.0,10 / 11,408032,2020-03-15 11:57:52:276
-0.177171,-11.190498,-1.015141,0.0,49.83783,24.018187,342.0,NaN,0.504,12.5,0.0,10 / 11,408532,2020-03-15 11:57:52:776
2.70066,-9.040505,0.6608,0.0,49.83783,24.018187,342.0,NaN,0.504,12.5,0.0,10 / 11,409032,2020-03-15 11:57:53:276
1.278504,-13.311762,-3.41892,0.0,49.83783,24.018187,342.0,NaN,0.504,12.5,0.0,10 / 11,409532,2020-03-15 11:57:53:776
-5.947197,-13.450625,-0.837971,0.0,49.83783,24.018187,342.0,NaN,0.504,12.5,0.0,10 / 11,410031,2020-03-15 11:57:54:275
-5.650316,-8.925584,-6.833051,0.0,49.83783,24.018187,342.0,NaN,0.504,12.5,0.0,10 / 11,410532,2020-03-15 11:57:54:776
2.494758,-11.391612,-1.158794,0.0,49.83783,24.018187,342.0,NaN,0.504,12.5,0.0,10 / 11,411032,2020-03-15 11:57:55:276
-1.426944,-2.480393,2.533065,0.0,49.83783,24.018187,342.0,NaN,0.504,12.5,0.0,10 / 11,411532,2020-03-15 11:57:55:776
-3.241749,-8.298302,-4.027047,0.0,49.83783,24.018187,342.0,NaN,0.504,12.5,0.0,10 / 11,412032,2020-03-15 11:57:56:276
-4.951209,-12.406754,-2.887407,0.0,49.83783,24.018187,342.0,NaN,0.504,12.5,0.0,10 / 11,412532,2020-03-15 11:57:56:776
-2.346318,-9.385271,-1.714248,0.0,49.83783,24.018187,342.0,NaN,0.504,12.5,0.0,10 / 11,413032,2020-03-15 11:57:57:276
-5.39653,-13.110648,-0.92895,0.0,49.83783,24.018187,342.0,NaN,0.504,12.5,0.0,10 / 11,413532,2020-03-15 11:57:57:776
-9.02614,1.086968,2.116475,0.0,49.83783,24.018187,342.0,NaN,0.504,12.5,0.0,10 / 11,414031,2020-03-15 11:57:58:275
-3.567361,-12.646173,-2.590526,0.0,49.83783,24.018187,342.0,NaN,0.504,12.5,0.0,10 / 11,414532,2020-03-15 11:57:58:776
-9.873688,-11.822568,-10.548853,0.0,49.83783,24.018187,342.0,NaN,0.504,12.5,0.0,10 / 11,415032,2020-03-15 11:57:59:276
0.019154,-7.522581,3.141193,0.0,49.83783,24.018187,342.0,NaN,0.504,12.5,0.0,10 / 11,415531,2020-03-15 11:57:59:775
-0.565032,-4.702212,1.910573,0.0,49.83783,24.018187,342.0,NaN,0.504,12.5,0.0,10 / 11,416032,2020-03-15 11:58:00:276
-2.571372,-9.346964,0.138864,0.0,49.83783,24.018187,342.0,NaN,0.504,12.5,0.0,10 / 11,416532,2020-03-15 11:58:00:776
2.959233,-6.876147,1.000776,0.0,49.83783,24.018187,342.0,NaN,0.504,12.5,0.0,10 / 11,417032,2020-03-15 11:58:01:276
-2.303222,-9.734824,-0.814029,0.0,49.83783,24.018187,342.0,NaN,0.504,12.5,0.0,10 / 11,417532,2020-03-15 11:58:01:776
-6.98628,-13.263878,3.050213,0.0,49.83783,24.018187,342.0,NaN,0.504,12.5,0.0,10 / 11,418032,2020-03-15 11:58:02:276
-4.927267,-11.03727,-5.032612,0.0,49.83783,24.018187,342.0,NaN,0.504,12.5,0.0,10 / 11,418532,2020-03-15 11:58:02:776
3.007117,-11.616667,-4.079719,0.0,49.83783,24.018187,342.0,NaN,0.504,12.5,0.0,10 / 11,419031,2020-03-15 11:58:03:275
-1.699883,-2.767697,1.446098,0.0,49.83783,24.018187,342.0,NaN,0.504,12.5,0.0,10 / 11,419532,2020-03-15 11:58:03:776
-0.325611,-8.695741,-1.944092,0.0,49.83783,24.018187,342.0,NaN,0.504,12.5,0.0,10 / 11,420032,2020-03-15 11:58:04:276
-3.892972,-10.821792,-3.404555,0.0,49.83783,24.018187,342.0,NaN,0.504,12.5,0.0,10 / 11,420532,2020-03-15 11:58:04:776
-3.902549,-9.150639,-1.891419,0.0,49.83783,24.018187,342.0,NaN,0.504,12.5,0.0,10 / 11,421031,2020-03-15 11:58:05:275
-4.936844,-11.463438,-3.462016,0.0,49.83783,24.018187,342.0,NaN,0.504,12.5,0.0,10 / 11,421532,2020-03-15 11:58:05:776
-9.136273,0.287304,-29.003359,0.0,49.83783,24.018187,342.0,NaN,0.504,12.5,0.0,10 / 11,422032,2020-03-15 11:58:06:276
-0.814029,-13.986926,-3.816357,0.0,49.83783,24.018187,342.0,NaN,0.504,12.5,0.0,10 / 11,422532,2020-03-15 11:58:06:776
-12.100295,-15.993267,-17.118542,0.0,49.83783,24.018187,342.0,NaN,0.504,12.5,0.0,10 / 11,423031,2020-03-15 11:58:07:275
-3.438074,-8.207323,-1.187524,0.0,49.83783,24.018187,342.0,NaN,0.504,12.5,0.0,10 / 11,423532,2020-03-15 11:58:07:776
-0.957681,-2.99754,2.327164,0.0,49.83783,24.018187,342.0,NaN,0.504,12.5,0.0,10 / 11,424032,2020-03-15 11:58:08:276
-4.390966,-8.705317,0.402226,0.0,49.83783,24.018187,342.0,NaN,0.504,12.5,0.0,10 / 11,424532,2020-03-15 11:58:08:776
-0.694318,-4.357447,2.078167,0.0,49.83783,24.018187,342.0,NaN,0.504,12.5,0.0,10 / 11,425031,2020-03-15 11:58:09:275
-1.326388,-10.34774,-0.948104,0.0,49.83783,24.018187,342.0,NaN,0.504,12.5,0.0,10 / 11,425532,2020-03-15 11:58:09:776
-3.543418,-15.648502,5.626374,0.0,49.83783,24.018187,342.0,NaN,0.504,12.5,0.0,10 / 11,426032,2020-03-15 11:58:10:276
-6.095637,-10.91756,-6.382941,0.0,49.83783,24.018187,342.0,NaN,0.504,12.5,0.0,10 / 11,426532,2020-03-15 11:58:10:776
3.1795,-12.469003,-3.878607,0.0,49.83783,24.018187,342.0,NaN,0.504,12.5,0.0,10 / 11,427031,2020-03-15 11:58:11:275
-2.212242,-2.72939,1.714248,0.0,49.83783,24.018187,342.0,NaN,0.504,12.5,0.0,10 / 11,427532,2020-03-15 11:58:11:776
0.292093,-7.661445,-1.647211,0.0,49.83783,24.018187,342.0,NaN,0.504,12.5,0.0,10 / 11,428032,2020-03-15 11:58:12:276
-3.548207,-11.204864,-1.331176,0.0,49.83783,24.018187,342.0,NaN,0.504,12.5,0.0,10 / 11,428532,2020-03-15 11:58:12:776
-3.423708,-9.390059,-2.154781,0.0,49.83783,24.018187,342.0,NaN,0.504,12.5,0.0,10 / 11,429032,2020-03-15 11:58:13:276
-6.315904,-14.211981,-2.916138,0.0,49.83783,24.018187,342.0,NaN,0.504,12.5,0.0,10 / 11,429532,2020-03-15 11:58:13:776
-2.96881,0.823605,13.283031,0.0,49.83783,24.018187,342.0,NaN,0.504,12.5,0.0,10 / 11,430032,2020-03-15 11:58:14:276
-6.220136,-12.196063,-3.083732,0.0,49.83783,24.018187,342.0,NaN,0.504,12.5,0.0,10 / 11,430532,2020-03-15 11:58:14:776
-11.425131,-12.191275,-14.618996,0.0,49.83783,24.018187,342.0,NaN,0.504,12.5,0.0,10 / 11,431032,2020-03-15 11:58:15:276
-0.80924,-7.982268,2.394202,0.0,49.83783,24.018187,342.0,NaN,0.504,12.5,0.0,10 / 11,431532,2020-03-15 11:58:15:776
1.201889,-6.799533,1.197101,0.0,49.83783,24.018187,342.0,NaN,0.504,12.5,0.0,10 / 11,432032,2020-03-15 11:58:16:276
0.627281,-14.848839,-3.155558,0.0,49.83783,24.018187,342.0,NaN,0.504,12.5,0.0,10 / 11,432532,2020-03-15 11:58:16:776
1.70946,-9.89763,-0.962469,0.0,49.83783,24.018187,342.0,NaN,0.504,12.5,0.0,10 / 11,433031,2020-03-15 11:58:17:275
3.122039,-12.631808,9.730036,0.0,49.83783,24.018187,342.0,NaN,0.504,12.5,0.0,10 / 11,433532,2020-03-15 11:58:17:776
0.632069,-15.428236,-2.413355,0.0,49.83783,24.018187,342.0,NaN,0.504,12.5,0.0,10 / 11,434032,2020-03-15 11:58:18:276
-5.90889,-11.793838,-10.328587,0.0,49.83783,24.018187,342.0,NaN,0.504,12.5,0.0,10 / 11,434532,2020-03-15 11:58:18:776
-2.844312,-9.059659,0.416591,0.0,49.83783,24.018187,342.0,NaN,0.504,12.5,0.0,10 / 11,435032,2020-03-15 11:58:19:276
-1.733402,-3.993528,1.623269,0.0,49.83783,24.018187,342.0,NaN,0.504,12.5,0.0,10 / 11,435532,2020-03-15 11:58:19:776
-4.903325,-9.586384,0.464475,0.0,49.83783,24.018187,342.0,NaN,0.504,12.5,0.0,10 / 11,436032,2020-03-15 11:58:20:276
-7.211335,-13.79539,3.964798,0.0,49.83783,24.018187,342.0,NaN,0.504,12.5,0.0,10 / 11,436531,2020-03-15 11:58:20:775
-0.818817,-19.670761,-3.998317,0.0,49.83783,24.018187,342.0,NaN,0.504,12.5,0.0,10 / 11,437032,2020-03-15 11:58:21:276
-1.613692,-16.146496,-4.031835,0.0,49.83783,24.018187,342.0,NaN,0.504,12.5,0.0,10 / 11,437532,2020-03-15 11:58:21:776
0.205901,-7.642292,-2.327164,0.0,49.83783,24.018187,342.0,NaN,0.504,12.5,0.0,10 / 11,438032,2020-03-15 11:58:22:276
-1.944092,-10.448297,-3.366248,0.0,49.83783,24.018187,342.0,NaN,0.504,12.5,0.0,10 / 11,438531,2020-03-15 11:58:22:775
-1.771709,-2.542642,1.996764,0.0,49.83783,24.018187,342.0,NaN,0.504,12.5,0.0,10 / 11,439032,2020-03-15 11:58:23:276
-4.611232,-8.384495,-1.924938,0.0,49.83783,24.018187,342.0,NaN,0.504,12.5,0.0,10 / 11,439532,2020-03-15 11:58:23:776
-6.363788,-11.664551,-3.026271,0.0,49.83783,24.018187,342.0,NaN,0.504,12.5,0.0,10 / 11,440032,2020-03-15 11:58:24:276
-14.915876,-5.784391,-15.380352,0.0,49.83783,24.018187,342.0,NaN,0.504,12.5,0.0,10 / 11,440531,2020-03-15 11:58:24:775
-9.308656,-14.729129,-1.958457,0.0,49.83783,24.018187,342.0,NaN,0.504,12.5,0.0,10 / 11,441032,2020-03-15 11:58:25:276
-3.811569,4.86023,9.902418,0.0,49.83783,24.018187,342.0,NaN,0.504,12.5,0.0,10 / 11,441532,2020-03-15 11:58:25:776
2.595315,-13.034034,-0.459687,0.0,49.83783,24.018187,342.0,NaN,0.504,12.5,0.0,0 / 0,442031,2020-03-15 11:58:26:275
-7.781155,-9.423578,-13.397953,0.0,49.83783,24.018187,342.0,NaN,0.504,12.5,0.0,0 / 0,442532,2020-03-15 11:58:26:776
-1.49877,-8.058882,1.393425,0.0,49.83783,24.018187,342.0,NaN,0.504,12.5,0.0,0 / 2,443032,2020-03-15 11:58:27:276
0.038307,-5.6982,1.489194,0.0,49.83783,24.018187,342.0,NaN,0.504,12.5,0.0,0 / 2,443531,2020-03-15 11:58:27:775
0.560243,-12.042834,-2.691083,0.0,49.83783,24.018187,342.0,NaN,0.504,12.5,0.0,0 / 6,444032,2020-03-15 11:58:28:276
-6.909666,-11.544841,2.240973,0.0,49.83783,24.018187,342.0,NaN,0.504,12.5,0.0,0 / 6,444532,2020-03-15 11:58:28:776
-1.599327,-19.742588,-3.476381,0.0,49.83783,24.018187,342.0,NaN,0.504,12.5,0.0,0 / 8,445031,2020-03-15 11:58:29:275
1.446098,-15.35641,-2.724601,0.0,49.83783,24.018187,342.0,NaN,0.504,12.5,0.0,0 / 8,445532,2020-03-15 11:58:29:776
-5.597643,-14.858416,-15.452178,0.0,49.83783,24.018187,342.0,NaN,0.504,12.5,0.0,0 / 11,446032,2020-03-15 11:58:30:276
-4.855441,-8.451532,-1.134852,0.0,49.83783,24.018187,342.0,NaN,0.504,12.5,0.0,0 / 11,446532,2020-03-15 11:58:30:776
-1.68073,-2.935291,3.126828,0.0,49.837505,24.017254,336.0,NaN,1.728,13.0,0.0,13 / 13,447032,2020-03-15 11:58:31:276
-4.91769,-8.164227,0.153229,0.0,49.837505,24.017254,336.0,NaN,1.728,13.0,0.0,13 / 13,447532,2020-03-15 11:58:31:776
-7.680599,-16.759413,2.322376,0.0,49.837505,24.017254,336.0,NaN,1.728,13.0,0.0,13 / 13,448031,2020-03-15 11:58:32:275
-10.419566,-22.965183,-19.713858,0.0,49.837505,24.017254,336.0,NaN,1.728,13.0,0.0,13 / 13,448532,2020-03-15 11:58:32:776
-6.842628,-13.900735,4.338294,0.0,49.837505,24.017254,336.0,NaN,1.728,13.0,0.0,13 / 13,449032,2020-03-15 11:58:33:276
-2.504335,-7.062895,-8.12592,0.0,49.837505,24.017254,336.0,NaN,1.728,13.0,0.0,13 / 13,449532,2020-03-15 11:58:33:776
-0.186748,-11.3964,-4.46758,0.0,49.837505,24.017254,336.0,NaN,1.728,13.0,0.0,13 / 13,450031,2020-03-15 11:58:34:275
-2.102109,-2.499546,2.806004,0.0,49.837505,24.017254,336.0,NaN,1.728,13.0,0.0,13 / 13,450532,2020-03-15 11:58:34:776
-5.319916,-8.724471,-2.274491,0.0,49.837505,24.017254,336.0,NaN,1.728,13.0,0.0,13 / 13,451032,2020-03-15 11:58:35:276
-5.827487,-14.84405,-0.952892,0.0,49.837505,24.017254,336.0,NaN,1.728,13.0,0.0,13 / 13,451532,2020-03-15 11:58:35:776
8.523358,13.397953,22.720974,0.0,49.837505,24.017254,336.0,NaN,1.728,13.0,0.0,13 / 13,452031,2020-03-15 11:58:36:275
-2.964022,-12.909535,-1.460463,0.0,49.837505,24.017254,336.0,NaN,1.728,13.0,0.0,13 / 13,452532,2020-03-15 11:58:36:776
-7.082048,-11.750742,6.406884,0.0,49.837505,24.017254,336.0,NaN,1.728,13.0,0.0,13 / 13,453032,2020-03-15 11:58:37:276
-1.814805,-11.137826,-0.574608,0.0,49.837505,24.017254,336.0,NaN,1.728,13.0,0.0,13 / 13,453532,2020-03-15 11:58:37:776
-5.72693,-6.062118,-6.301539,0.0,49.837505,24.017254,336.0,NaN,1.728,13.0,0.0,13 / 13,454031,2020-03-15 11:58:38:275
-0.967257,-7.484274,-0.794875,0.0,49.837505,24.017254,336.0,NaN,1.728,13.0,0.0,13 / 13,454532,2020-03-15 11:58:38:776
-0.799663,-10.390836,-0.215478,0.0,49.837505,24.017254,336.0,NaN,1.728,13.0,0.0,13 / 13,455032,2020-03-15 11:58:39:276
1.187524,-7.785944,26.206932,0.0,49.837505,24.017254,336.0,NaN,1.728,13.0,0.0,13 / 13,455531,2020-03-15 11:58:39:775
-1.781286,-13.64695,-2.413355,0.0,49.837505,24.017254,336.0,NaN,1.728,13.0,0.0,13 / 13,456032,2020-03-15 11:58:40:276
-13.192051,-11.449073,-10.232818,0.0,49.837505,24.017254,336.0,NaN,1.728,13.0,0.0,13 / 13,456532,2020-03-15 11:58:40:776
-0.344765,-11.602302,-1.604115,0.0,49.837505,24.017254,336.0,NaN,1.728,13.0,0.0,13 / 13,457032,2020-03-15 11:58:41:276
-1.503559,-2.839523,1.340753,0.0,49.837505,24.017254,336.0,NaN,1.728,13.0,0.0,13 / 13,457532,2020-03-15 11:58:41:776
-3.754108,-9.270349,-1.25935,0.0,49.837505,24.017254,336.0,NaN,1.728,13.0,0.0,13 / 13,458032,2020-03-15 11:58:42:276
-9.442732,-14.820108,1.426944,0.0,49.837505,24.017254,336.0,NaN,1.728,13.0,0.0,13 / 13,458531,2020-03-15 11:58:42:775
1.891419,-7.398083,25.689787,0.0,49.837505,24.017254,336.0,NaN,1.728,13.0,0.0,13 / 13,459032,2020-03-15 11:58:43:276
-0.59855,-11.530476,0.545878,0.0,49.837505,24.017254,336.0,NaN,1.728,13.0,0.0,13 / 13,459532,2020-03-15 11:58:43:776
-2.48997,-3.62961,-0.71826,0.0,49.837505,24.017254,336.0,NaN,1.728,13.0,0.0,13 / 13,460032,2020-03-15 11:58:44:276
-0.009577,-8.111555,0.42138,0.0,49.837505,24.017254,336.0,NaN,1.728,13.0,0.0,13 / 13,460532,2020-03-15 11:58:44:776
-1.656788,-2.858677,0.675165,0.0,49.837505,24.017254,336.0,NaN,1.728,13.0,0.0,13 / 13,461032,2020-03-15 11:58:45:276
-1.656788,-7.149086,-1.70946,0.0,49.837505,24.017254,336.0,NaN,1.728,13.0,0.0,13 / 13,461532,2020-03-15 11:58:45:776
1.92015,-9.969456,-1.235408,0.0,49.837505,24.017254,336.0,NaN,1.728,13.0,0.0,13 / 13,462031,2020-03-15 11:58:46:275
-0.081403,-17.597382,-2.073379,0.0,49.837505,24.017254,336.0,NaN,1.728,13.0,0.0,13 / 13,462532,2020-03-15 11:58:46:776
0.837971,-16.601395,-3.160346,0.0,49.837505,24.017254,336.0,NaN,1.728,13.0,0.0,13 / 13,463032,2020-03-15 11:58:47:276
-0.517148,-4.309563,-3.711012,0.0,49.837505,24.017254,336.0,NaN,1.728,13.0,0.0,13 / 13,463532,2020-03-15 11:58:47:776
-0.565032,-9.710882,-2.580949,0.0,49.837505,24.017254,336.0,NaN,1.728,13.0,0.0,13 / 13,464032,2020-03-15 11:58:48:276
-1.68073,-2.446874,2.37026,0.0,49.837505,24.017254,336.0,NaN,1.728,13.0,0.0,13 / 13,464531,2020-03-15 11:58:48:775
-3.007117,-7.479486,0.387861,0.0,49.837505,24.017254,336.0,NaN,1.728,13.0,0.0,13 / 13,465032,2020-03-15 11:58:49:276
-1.37906,-2.906561,2.485181,0.0,49.837505,24.017254,336.0,NaN,1.728,13.0,0.0,13 / 13,465532,2020-03-15 11:58:49:776
-4.774038,-8.676587,1.661576,0.0,49.837505,24.017254,336.0,NaN,1.728,13.0,0.0,13 / 13,466031,2020-03-15 11:58:50:275
-9.169792,-15.418659,3.366248,0.0,49.837505,24.017254,336.0,NaN,1.728,13.0,0.0,13 / 13,466532,2020-03-15 11:58:50:776
7.196971,-10.572795,30.430304,0.0,49.837505,24.017254,336.0,NaN,1.728,13.0,0.0,13 / 13,467031,2020-03-15 11:58:51:275
-1.35033,-10.788273,-1.029507,0.0,49.837505,24.017254,336.0,NaN,1.728,13.0,0.0,13 / 13,467532,2020-03-15 11:58:51:776
-1.929727,-4.410119,-2.72939,0.0,49.837505,24.017254,336.0,NaN,1.728,13.0,0.0,13 / 13,468032,2020-03-15 11:58:52:276
-1.235408,-6.904877,-1.297657,0.0,49.837505,24.017254,336.0,NaN,1.728,13.0,0.0,13 / 13,468531,2020-03-15 11:58:52:775
-0.723049,-3.112462,1.058237,0.0,49.837505,24.017254,336.0,NaN,1.728,13.0,0.0,13 / 13,469032,2020-03-15 11:58:53:276
-0.497994,-7.374141,-1.335964,0.0,49.837505,24.017254,336.0,NaN,1.728,13.0,0.0,13 / 13,469532,2020-03-15 11:58:53:776
-2.092532,-9.006987,0.373495,0.0,49.837505,24.017254,336.0,NaN,1.728,13.0,0.0,13 / 13,470031,2020-03-15 11:58:54:275
-3.825934,-20.293253,-1.096544,0.0,49.837505,24.017254,336.0,NaN,1.728,13.0,0.0,13 / 13,470532,2020-03-15 11:58:54:776
-5.272032,-18.885464,2.408567,0.0,49.837505,24.017254,336.0,NaN,1.728,13.0,0.0,13 / 13,471032,2020-03-15 11:58:55:276
-1.896208,-10.730812,-8.183381,0.0,49.837505,24.017254,336.0,NaN,1.728,13.0,0.0,13 / 13,471531,2020-03-15 11:58:55:775
3.5099,-13.359646,-5.736507,0.0,49.837505,24.017254,336.0,NaN,1.728,13.0,0.0,13 / 13,472032,2020-03-15 11:58:56:276
-1.04866,-1.915361,2.509123,0.0,49.837505,24.017254,336.0,NaN,1.728,13.0,0.0,13 / 13,472531,2020-03-15 11:58:56:775
0.023942,-11.717223,-8.868123,0.0,49.837505,24.017254,336.0,NaN,1.728,13.0,0.0,13 / 13,473032,2020-03-15 11:58:57:276
-1.742979,-1.656788,2.710236,0.0,49.837505,24.017254,336.0,NaN,1.728,13.0,0.0,13 / 13,473532,2020-03-15 11:58:57:776
-2.145205,-7.158663,-1.345541,0.0,49.837505,24.017254,336.0,NaN,1.728,13.0,0.0,13 / 13,474031,2020-03-15 11:58:58:275
-3.356671,-11.741165,-4.845864,0.0,49.837505,24.017254,336.0,NaN,1.728,13.0,0.0,13 / 13,474532,2020-03-15 11:58:58:776
-12.29662,0.474052,-24.95716,0.0,49.837505,24.017254,336.0,NaN,1.728,13.0,0.0,13 / 13,475032,2020-03-15 11:58:59:276
-2.202665,-15.011644,-2.777274,0.0,49.837505,24.017254,336.0,NaN,1.728,13.0,0.0,13 / 13,475532,2020-03-15 11:58:59:776
-13.699622,-17.45373,-17.563864,0.0,49.837505,24.017254,336.0,NaN,1.728,13.0,0.0,13 / 13,476032,2020-03-15 11:59:00:276
-0.991199,-8.09719,1.766921,0.0,49.837505,24.017254,336.0,NaN,1.728,13.0,0.0,13 / 13,476532,2020-03-15 11:59:00:776
-2.178723,-5.094861,-4.726154,0.0,49.837505,24.017254,336.0,NaN,1.728,13.0,0.0,13 / 13,477032,2020-03-15 11:59:01:276
-2.298433,-6.17704,-1.077391,0.0,49.837505,24.017254,336.0,NaN,1.728,13.0,0.0,13 / 13,477532,2020-03-15 11:59:01:776
1.781286,-8.341399,0.536301,0.0,49.837505,24.017254,336.0,NaN,1.728,13.0,0.0,13 / 13,478031,2020-03-15 11:59:02:275
-1.063026,-21.32276,-2.681506,0.0,49.837505,24.017254,336.0,NaN,1.728,13.0,0.0,13 / 13,478532,2020-03-15 11:59:02:776
-3.653552,-14.121001,-0.459687,0.0,49.837505,24.017254,336.0,NaN,1.728,13.0,0.0,13 / 13,479032,2020-03-15 11:59:03:276
-2.288857,-4.879383,-5.310339,0.0,49.837505,24.017254,336.0,NaN,1.728,13.0,0.0,13 / 13,479532,2020-03-15 11:59:03:776
3.96001,-13.383588,-4.333505,0.0,49.837505,24.017254,336.0,NaN,1.728,13.0,0.0,13 / 13,480032,2020-03-15 11:59:04:276
-1.632845,-1.862689,1.714248,0.0,49.837505,24.017254,336.0,NaN,1.728,13.0,0.0,13 / 13,480532,2020-03-15 11:59:04:776
-0.641646,-11.295844,-8.370129,0.0,49.837505,24.017254,336.0,NaN,1.728,13.0,0.0,13 / 13,481032,2020-03-15 11:59:05:276
-2.260126,-2.566584,3.102886,0.0,49.837505,24.017254,336.0,NaN,1.728,13.0,0.0,13 / 13,481532,2020-03-15 11:59:05:776
-3.107674,-8.499416,-1.752556,0.0,49.837505,24.017254,336.0,NaN,1.728,13.0,0.0,13 / 13,482032,2020-03-15 11:59:06:276
-4.175488,-11.252748,-3.931279,0.0,49.837505,24.017254,336.0,NaN,1.728,13.0,0.0,13 / 13,482532,2020-03-15 11:59:06:776
2.394202,-10.534488,16.294937,0.0,49.837505,24.017254,336.0,NaN,1.728,13.0,0.0,13 / 13,483032,2020-03-15 11:59:07:276
-3.529053,-13.713987,-2.964022,0.0,49.837505,24.017254,336.0,NaN,1.728,13.0,0.0,13 / 13,483531,2020-03-15 11:59:07:775
-12.018892,-19.507956,-20.264523,0.0,49.837505,24.017254,336.0,NaN,1.728,13.0,0.0,13 / 13,484032,2020-03-15 11:59:08:276
-2.748543,-7.541735,-0.004788,0.0,49.837505,24.017254,336.0,NaN,1.728,13.0,0.0,13 / 13,484531,2020-03-15 11:59:08:775
-9.437943,-11.971008,-12.856863,0.0,49.837505,24.017254,336.0,NaN,1.728,13.0,0.0,13 / 13,485032,2020-03-15 11:59:09:276
-0.742202,-7.924807,2.217031,0.0,49.837505,24.017254,336.0,NaN,1.728,13.0,0.0,13 / 13,485532,2020-03-15 11:59:09:776
-0.067038,-4.13718,2.671929,0.0,49.837505,24.017254,336.0,NaN,1.728,13.0,0.0,13 / 13,486031,2020-03-15 11:59:10:275
-1.484405,-10.869676,-0.876278,0.0,49.837505,24.017254,336.0,NaN,1.728,13.0,0.0,13 / 13,486532,2020-03-15 11:59:10:776
-8.949526,-12.454638,2.829947,0.0,49.837505,24.017254,336.0,NaN,1.728,13.0,0.0,13 / 13,487032,2020-03-15 11:59:11:276
-5.884948,-11.439496,-7.728483,0.0,49.837505,24.017254,336.0,NaN,1.728,13.0,0.0,13 / 13,487532,2020-03-15 11:59:11:776
3.529053,-13.718776,-2.796427,0.0,49.837505,24.017254,336.0,NaN,1.728,13.0,0.0,13 / 13,488032,2020-03-15 11:59:12:276
-1.120486,-1.742979,2.446874,0.0,49.837505,24.017254,336.0,NaN,1.728,13.0,0.0,13 / 13,488532,2020-03-15 11:59:12:776
1.489194,-11.621455,-4.764461,0.0,49.837505,24.017254,336.0,NaN,1.728,13.0,0.0,13 / 13,489032,2020-03-15 11:59:13:276
-1.422156,-2.217031,2.667141,0.0,49.837505,24.017254,336.0,NaN,1.728,13.0,0.0,13 / 13,489532,2020-03-15 11:59:13:776
-1.23062,-7.498639,-1.872266,0.0,49.837505,24.017254,336.0,NaN,1.728,13.0,0.0,13 / 13,490031,2020-03-15 11:59:14:275
-2.322375,-11.554418,-2.863465,0.0,49.837505,24.017254,336.0,NaN,1.728,13.0,0.0,13 / 13,490532,2020-03-15 11:59:14:776
-4.10845,-20.599712,0.339977,0.0,49.837505,24.017254,336.0,NaN,1.728,13.0,0.0,13 / 13,491032,2020-03-15 11:59:15:276
1.465252,-17.123331,-2.082955,0.0,49.837505,24.017254,336.0,NaN,1.728,13.0,0.0,13 / 13,491532,2020-03-15 11:59:15:776
-6.517017,-10.601525,-6.593631,0.0,49.837505,24.017254,336.0,NaN,1.728,13.0,0.0,13 / 13,492032,2020-03-15 11:59:16:276
-4.266467,-8.259995,-1.422156,0.0,49.837505,24.017254,336.0,NaN,1.728,13.0,0.0,13 / 13,492532,2020-03-15 11:59:16:776
-13.824121,-15.816096,-16.673222,0.0,49.837505,24.017254,336.0,NaN,1.728,13.0,0.0,13 / 13,493032,2020-03-15 11:59:17:276
-4.170699,-7.19697,-0.751779,0.0,49.837505,24.017254,336.0,NaN,1.728,13.0,0.0,13 / 13,493532,2020-03-15 11:59:17:776
-0.684742,-1.939303,3.404555,0.0,49.837505,24.017254,336.0,NaN,1.728,13.0,0.0,13 / 13,494032,2020-03-15 11:59:18:276
-4.261679,-8.51857,-1.474828,0.0,49.837505,24.017254,336.0,NaN,1.728,13.0,0.0,13 / 13,494532,2020-03-15 11:59:18:776
-9.734824,-14.279019,-1.944092,0.0,49.837505,24.017254,336.0,NaN,1.728,13.0,0.0,13 / 13,495032,2020-03-15 11:59:19:276
-0.220267,9.500193,18.459295,0.0,49.837505,24.017254,336.0,NaN,1.728,13.0,0.0,13 / 13,495532,2020-03-15 11:59:19:776
-1.934515,-12.698846,-1.426944,0.0,49.837505,24.017254,336.0,NaN,1.728,13.0,0.0,13 / 13,496032,2020-03-15 11:59:20:276
-7.680599,-10.879252,-7.43639,0.0,49.837505,24.017254,336.0,NaN,1.728,13.0,0.0,13 / 13,496532,2020-03-15 11:59:20:776
-5.81791,-12.339716,-3.313575,0.0,49.837505,24.017254,336.0,NaN,1.728,13.0,0.0,13 / 13,497032,2020-03-15 11:59:21:276
-12.876017,-13.666103,-14.384364,0.0,49.837505,24.017254,336.0,NaN,1.728,13.0,0.0,13 / 13,497531,2020-03-15 11:59:21:775
-5.434838,-7.28795,-1.058237,0.0,49.837505,24.017254,336.0,NaN,1.728,13.0,0.0,13 / 13,498032,2020-03-15 11:59:22:276
-1.436521,-2.494758,2.523489,0.0,49.837505,24.017254,336.0,NaN,1.728,13.0,0.0,13 / 13,498532,2020-03-15 11:59:22:776
-3.62961,-9.533711,-1.225831,0.0,49.837505,24.017254,336.0,NaN,1.728,13.0,0.0,13 / 13,499031,2020-03-15 11:59:23:275
-5.784391,-11.501745,-3.509899,0.0,49.837505,24.017254,336.0,NaN,1.728,13.0,0.0,0 / 0,499532,2020-03-15 11:59:23:776
-1.101333,-12.368446,21.025879,0.0,49.837505,24.017254,336.0,NaN,1.728,13.0,0.0,0 / 0,500032,2020-03-15 11:59:24:276
-0.555455,-14.33648,-5.142745,0.0,49.837505,24.017254,336.0,NaN,1.728,13.0,0.0,0 / 1,500532,2020-03-15 11:59:24:776
-2.657564,-11.894394,-10.433931,0.0,49.837505,24.017254,336.0,NaN,1.728,13.0,0.0,0 / 1,501031,2020-03-15 11:59:25:275
-0.799663,-14.101848,-3.739743,0.0,49.837505,24.017254,336.0,NaN,1.728,13.0,0.0,0 / 4,501532,2020-03-15 11:59:25:776
-10.041282,-14.829685,-18.066647,0.0,49.837505,24.017254,336.0,NaN,1.728,13.0,0.0,0 / 4,502032,2020-03-15 11:59:26:276
-2.806004,-7.594407,0.962469,0.0,49.837505,24.017254,336.0,NaN,1.728,13.0,0.0,0 / 7,502531,2020-03-15 11:59:26:775
-1.426944,-3.29921,1.570596,0.0,49.837505,24.017254,336.0,NaN,1.728,13.0,0.0,0 / 7,503032,2020-03-15 11:59:27:276
-5.861006,-8.916007,1.896208,0.0,49.837505,24.017254,336.0,NaN,1.728,13.0,0.0,0 / 11,503532,2020-03-15 11:59:27:776
-9.083601,-15.26543,1.958457,0.0,49.837505,24.017254,336.0,NaN,1.728,13.0,0.0,0 / 11,504031,2020-03-15 11:59:28:275
0.047884,-17.022774,19.570204,0.0,49.837505,24.017254,336.0,NaN,1.728,13.0,0.0,0 / 13,504532,2020-03-15 11:59:28:776
-0.914585,-11.860875,-1.23062,0.0,49.837505,24.017254,336.0,NaN,1.728,13.0,0.0,0 / 13,505032,2020-03-15 11:59:29:276
-7.752425,-14.417883,-6.622362,0.0,49.837505,24.017254,336.0,NaN,1.728,13.0,0.0,0 / 14,505532,2020-03-15 11:59:29:776
0.234632,-11.927913,-1.120486,0.0,49.837505,24.017254,336.0,NaN,1.728,13.0,0.0,0 / 14,506032,2020-03-15 11:59:30:276
-0.675165,-3.41892,-0.823605,0.0,49.837505,24.017254,336.0,NaN,1.728,13.0,0.0,0 / 14,506532,2020-03-15 11:59:30:776
-1.972822,-7.64708,-1.288081,0.0,49.837505,24.017254,336.0,NaN,1.728,13.0,0.0,0 / 14,507032,2020-03-15 11:59:31:276
-3.203442,-10.424355,-0.636858,0.0,49.837505,24.017254,336.0,NaN,1.728,13.0,0.0,0 / 18,507531,2020-03-15 11:59:31:775
1.44131,5.827487,5.09965,0.0,49.837505,24.017254,336.0,NaN,1.728,13.0,0.0,0 / 18,508032,2020-03-15 11:59:32:276
0.21069,-15.246277,-2.470816,0.0,49.837505,24.017254,336.0,NaN,1.728,13.0,0.0,18 / 19,508532,2020-03-15 11:59:32:776
-7.671022,-16.352398,-17.439365,0.0,49.837505,24.017254,336.0,NaN,1.728,13.0,0.0,18 / 19,509031,2020-03-15 11:59:33:275
-5.348646,-13.747506,-3.53863,0.0,49.837505,24.017254,336.0,NaN,1.728,13.0,0.0,18 / 19,509532,2020-03-15 11:59:33:776
-15.26543,-16.213533,-17.2191,0.0,49.837505,24.017254,336.0,NaN,1.728,13.0,0.0,18 / 19,510032,2020-03-15 11:59:34:276
-3.969586,-7.460332,-2.020706,0.0,49.837505,24.017254,336.0,NaN,1.728,13.0,0.0,18 / 19,510531,2020-03-15 11:59:34:775
