ACCELEROMETER X (m/s²),ACCELEROMETER Y (m/s²),ACCELEROMETER Z (m/s²),PROXIMITY (m),LOCATION Latitude : ,LOCATION Longitude : ,LOCATION Altitude ( m),LOCATION Altitude-google ( m),LOCATION Speed ( Kmh),LOCATION Accuracy ( m),LOCATION ORIENTATION (°),Satellites in range,Time since start in ms ,YYYY-MO-DD HH-MI-SS_SSS
2.322376,3.643975,11.827356,8.0,49.836666,24.039879,349.0,NaN,1.908,10.0,0.0,0 / 0,31,2020-03-19 19:17:13:800
1.781286,4.668694,6.14831,8.0,49.836666,24.039879,349.0,NaN,1.908,10.0,0.0,0 / 4,530,2020-03-19 19:17:14:299
7.963115,-4.113238,1.359907,8.0,49.836666,24.039879,349.0,NaN,1.908,10.0,0.0,0 / 3,1030,2020-03-19 19:17:14:799
1.996764,-1.398214,1.163582,8.0,49.836666,24.039879,349.0,NaN,1.908,10.0,0.0,0 / 3,1531,2020-03-19 19:17:15:300
5.185841,-12.143391,4.687847,0.0,49.836666,24.039879,349.0,NaN,1.908,10.0,0.0,0 / 5,2031,2020-03-19 19:17:15:800
11.219229,-10.625467,-8.087613,0.0,49.836666,24.039879,349.0,NaN,1.908,10.0,0.0,0 / 5,2530,2020-03-19 19:17:16:299
10.888829,-13.939042,-1.273715,0.0,49.836666,24.039879,349.0,NaN,1.908,10.0,0.0,0 / 6,3031,2020-03-19 19:17:16:800
9.902418,-9.667787,-0.110133,0.0,49.836666,24.039879,349.0,NaN,1.908,10.0,0.0,0 / 6,3531,2020-03-19 19:17:17:300
8.09719,-20.9349,1.393425,0.0,49.836666,24.039879,349.0,NaN,1.908,10.0,0.0,0 / 6,4030,2020-03-19 19:17:17:799
5.655105,-11.573571,-1.106121,0.0,49.836666,24.039879,349.0,NaN,1.908,10.0,0.0,0 / 6,4531,2020-03-19 19:17:18:300
12.363658,-18.253393,-21.44247,0.0,49.836666,24.039879,349.0,NaN,1.908,10.0,0.0,0 / 6,5030,2020-03-19 19:17:18:799
5.171476,-9.169792,0.407014,0.0,49.836666,24.039879,349.0,NaN,1.908,10.0,0.0,0 / 6,5530,2020-03-19 19:17:19:299
-1.92015,-3.648763,0.244209,0.0,49.836666,24.039879,349.0,NaN,1.908,10.0,0.0,0 / 7,6031,2020-03-19 19:17:19:800
0.11971,-7.819463,0.234632,0.0,49.836666,24.039879,349.0,NaN,1.908,10.0,0.0,0 / 7,6531,2020-03-19 19:17:20:300
4.908114,-11.271901,-2.561796,0.0,49.83773,24.039227,310.0,NaN,3.708,19.0,295.1,8 / 8,7031,2020-03-19 19:17:20:800
0.363919,-15.289372,-1.977611,0.0,49.83773,24.039227,310.0,NaN,3.708,19.0,295.1,8 / 8,7531,2020-03-19 19:17:21:300
5.075708,-10.682928,-1.565808,0.0,49.83773,24.039227,310.0,NaN,3.708,19.0,295.1,8 / 8,8031,2020-03-19 19:17:21:800
-2.097321,-13.431472,4.252103,0.0,49.83773,24.039227,310.0,NaN,3.708,19.0,295.1,8 / 8,8531,2020-03-19 19:17:22:300
4.563349,-10.31901,0.45011,0.0,49.83773,24.039227,310.0,NaN,3.708,19.0,295.1,8 / 8,9031,2020-03-19 19:17:22:800
0.837971,-5.544971,-1.441309,0.0,49.83773,24.039227,310.0,NaN,3.708,19.0,295.1,8 / 8,9530,2020-03-19 19:17:23:299
2.537854,-8.408437,0.277727,0.0,49.83773,24.039227,310.0,NaN,3.708,19.0,295.1,8 / 8,10031,2020-03-19 19:17:23:800
2.494758,-5.980716,2.312799,0.0,49.83773,24.039227,310.0,NaN,3.708,19.0,295.1,8 / 8,10530,2020-03-19 19:17:24:299
-2.351106,-14.432248,-0.972046,0.0,49.83773,24.039227,310.0,NaN,3.708,19.0,295.1,8 / 8,11031,2020-03-19 19:17:24:800
6.540959,-10.903194,-2.03986,0.0,49.83773,24.039227,310.0,NaN,3.708,19.0,295.1,8 / 8,11531,2020-03-19 19:17:25:300
5.214572,-10.749966,-6.234501,0.0,49.83773,24.039227,310.0,NaN,3.708,19.0,295.1,8 / 8,12031,2020-03-19 19:17:25:800
4.644751,-12.392388,-1.211466,0.0,49.83773,24.039227,310.0,NaN,3.708,19.0,295.1,8 / 8,12530,2020-03-19 19:17:26:299
5.923255,-13.977349,-7.785944,0.0,49.83773,24.039227,310.0,NaN,3.708,19.0,295.1,8 / 8,13030,2020-03-19 19:17:26:799
5.33907,-9.495404,0.632069,0.0,49.83773,24.039227,310.0,NaN,3.708,19.0,295.1,8 / 8,13530,2020-03-19 19:17:27:299
-2.389413,-4.831499,0.938527,0.0,49.83773,24.039227,310.0,NaN,3.708,19.0,295.1,8 / 8,14031,2020-03-19 19:17:27:800
-0.21069,-8.872911,0.043096,0.0,49.83773,24.039227,310.0,NaN,3.708,19.0,295.1,8 / 8,14531,2020-03-19 19:17:28:300
1.757344,-12.737153,-2.384625,0.0,49.83773,24.039227,310.0,NaN,3.708,19.0,295.1,8 / 8,15030,2020-03-19 19:17:28:799
0.162806,-2.15957,19.589357,0.0,49.83773,24.039227,310.0,NaN,3.708,19.0,295.1,8 / 8,15531,2020-03-19 19:17:29:300
3.974375,-12.349293,-2.097321,0.0,49.83773,24.039227,310.0,NaN,3.708,19.0,295.1,8 / 8,16031,2020-03-19 19:17:29:800
7.52737,-20.058622,-16.682798,0.0,49.83773,24.039227,310.0,NaN,3.708,19.0,295.1,8 / 8,16531,2020-03-19 19:17:30:300
0.6608,-9.65821,-0.995988,0.0,49.83773,24.039227,310.0,NaN,3.708,19.0,295.1,8 / 8,17031,2020-03-19 19:17:30:800
-1.264138,-2.442086,1.407791,0.0,49.83773,24.039227,310.0,NaN,3.708,19.0,295.1,8 / 8,17530,2020-03-19 19:17:31:299
-2.964022,-9.203311,-0.967257,0.0,49.83773,24.039227,310.0,NaN,3.708,19.0,295.1,8 / 8,18031,2020-03-19 19:17:31:800
-1.556231,-3.122039,1.958457,0.0,49.83773,24.039227,310.0,NaN,3.708,19.0,295.1,8 / 8,18531,2020-03-19 19:17:32:300
-4.721366,-8.781932,0.311246,0.0,49.83773,24.039227,310.0,NaN,3.708,19.0,295.1,8 / 8,19031,2020-03-19 19:17:32:800
-5.837064,-17.606958,-0.02873,0.0,49.83773,24.039227,310.0,NaN,3.708,19.0,295.1,8 / 8,19531,2020-03-19 19:17:33:300
-2.542642,3.423709,21.648373,0.0,49.83773,24.039227,310.0,NaN,3.708,19.0,295.1,8 / 8,20031,2020-03-19 19:17:33:800
4.276045,-13.618219,0.172383,0.0,49.83773,24.039227,310.0,NaN,3.708,19.0,295.1,8 / 8,20531,2020-03-19 19:17:34:300
2.767697,-19.268536,-26.3027,0.0,49.83773,24.039227,310.0,NaN,3.708,19.0,295.1,8 / 8,21031,2020-03-19 19:17:34:800
-0.871489,-9.80665,-3.428497,0.0,49.83773,24.039227,310.0,NaN,3.708,19.0,295.1,8 / 8,21531,2020-03-19 19:17:35:300
-1.599327,-3.878607,3.246538,0.0,49.83773,24.039227,310.0,NaN,3.708,19.0,295.1,8 / 8,22031,2020-03-19 19:17:35:800
-5.152322,-9.255983,-1.23062,0.0,49.83773,24.039227,310.0,NaN,3.708,19.0,295.1,8 / 8,22531,2020-03-19 19:17:36:300
-9.504981,-17.650055,-0.766144,0.0,49.83773,24.039227,310.0,NaN,3.708,19.0,295.1,8 / 8,23031,2020-03-19 19:17:36:800
-3.045424,-8.494628,-0.823605,0.0,49.83773,24.039227,310.0,NaN,3.708,19.0,295.1,8 / 8,23531,2020-03-19 19:17:37:300
-6.852205,-15.5671,-1.268927,0.0,49.83773,24.039227,310.0,NaN,3.708,19.0,295.1,8 / 8,24031,2020-03-19 19:17:37:800
-7.029376,1.364695,5.013459,0.0,49.83773,24.039227,310.0,NaN,3.708,19.0,295.1,8 / 8,24530,2020-03-19 19:17:38:299
-1.388637,-11.540052,-2.451662,0.0,49.83773,24.039227,310.0,NaN,3.708,19.0,295.1,8 / 8,25031,2020-03-19 19:17:38:800
6.378154,-20.025103,-19.982008,0.0,49.83773,24.039227,310.0,NaN,3.708,19.0,295.1,8 / 8,25531,2020-03-19 19:17:39:300
-3.821146,-8.973468,-1.465251,0.0,49.83773,24.039227,310.0,NaN,3.708,19.0,295.1,8 / 8,26030,2020-03-19 19:17:39:799
-3.112462,-3.361459,2.092532,0.0,49.83773,24.039227,310.0,NaN,3.708,19.0,295.1,8 / 8,26530,2020-03-19 19:17:40:299
-3.667917,-7.460332,-0.627281,0.0,49.83773,24.039227,310.0,NaN,3.708,19.0,295.1,8 / 8,27030,2020-03-19 19:17:40:799
-4.43885,-12.406754,-1.742979,0.0,49.83773,24.039227,310.0,NaN,3.708,19.0,295.1,8 / 8,27531,2020-03-19 19:17:41:300
-1.790863,0.416591,20.944477,0.0,49.83773,24.039227,310.0,NaN,3.708,19.0,295.1,8 / 8,28031,2020-03-19 19:17:41:800
-0.512359,-9.404425,-2.097321,0.0,49.83773,24.039227,310.0,NaN,3.708,19.0,295.1,8 / 8,28531,2020-03-19 19:17:42:300
-4.309563,-23.376986,-9.457097,0.0,49.83773,24.039227,310.0,NaN,3.708,19.0,295.1,8 / 8,29031,2020-03-19 19:17:42:800
-2.212242,-14.690822,-4.027047,0.0,49.83773,24.039227,310.0,NaN,3.708,19.0,295.1,8 / 8,29531,2020-03-19 19:17:43:300
-0.435745,-7.230489,-4.572925,0.0,49.83773,24.039227,310.0,NaN,3.708,19.0,295.1,8 / 8,30030,2020-03-19 19:17:43:799
0.775721,-10.97502,-1.781286,0.0,49.83773,24.039227,310.0,NaN,3.708,19.0,295.1,8 / 8,30531,2020-03-19 19:17:44:300
-3.069367,-2.418144,1.192313,0.0,49.83773,24.039227,310.0,NaN,3.708,19.0,295.1,8 / 8,31031,2020-03-19 19:17:44:800
-1.072602,-8.288726,-1.106121,0.0,49.83773,24.039227,310.0,NaN,3.708,19.0,295.1,8 / 8,31531,2020-03-19 19:17:45:300
-0.876278,-10.448297,-2.044648,0.0,49.83773,24.039227,310.0,NaN,3.708,19.0,295.1,8 / 8,32030,2020-03-19 19:17:45:799
-3.260903,-15.073894,5.382166,0.0,49.83773,24.039227,310.0,NaN,3.708,19.0,295.1,8 / 8,32530,2020-03-19 19:17:46:299
-1.465251,-12.741941,-2.853888,0.0,49.83773,24.039227,310.0,NaN,3.708,19.0,295.1,8 / 8,33030,2020-03-19 19:17:46:799
-1.106121,-8.858546,-6.445191,0.0,49.83773,24.039227,310.0,NaN,3.708,19.0,295.1,8 / 8,33530,2020-03-19 19:17:47:299
-0.742202,-15.524004,-3.77805,0.0,49.83773,24.039227,310.0,NaN,3.708,19.0,295.1,8 / 8,34030,2020-03-19 19:17:47:799
1.010353,-14.911088,-8.317456,0.0,49.83773,24.039227,310.0,NaN,3.708,19.0,295.1,8 / 8,34530,2020-03-19 19:17:48:299
-1.991976,-9.342175,-2.743755,0.0,49.83773,24.039227,310.0,NaN,3.708,19.0,295.1,8 / 8,35031,2020-03-19 19:17:48:800
-2.260126,-2.796427,0.426168,0.0,49.83773,24.039227,310.0,NaN,3.708,19.0,295.1,8 / 8,35531,2020-03-19 19:17:49:300
-6.028599,-6.947973,-1.268927,0.0,49.83773,24.039227,310.0,NaN,3.708,19.0,295.1,8 / 8,36030,2020-03-19 19:17:49:799
-11.247959,-12.526464,3.246538,0.0,49.83773,24.039227,310.0,NaN,3.708,19.0,295.1,8 / 8,36531,2020-03-19 19:17:50:300
-8.264784,-18.401834,-5.57849,0.0,49.83773,24.039227,310.0,NaN,3.708,19.0,295.1,8 / 8,37030,2020-03-19 19:17:50:799
-0.584185,-10.94629,-1.015141,0.0,49.83773,24.039227,310.0,NaN,3.708,19.0,295.1,8 / 8,37531,2020-03-19 19:17:51:300
-2.944868,-3.763685,0.847547,0.0,49.83773,24.039227,310.0,NaN,3.708,19.0,295.1,8 / 8,38031,2020-03-19 19:17:51:800
-1.675941,-9.136273,-2.839523,0.0,49.83773,24.039227,310.0,NaN,3.708,19.0,295.1,8 / 8,38531,2020-03-19 19:17:52:300
-3.773262,-4.094085,-0.531513,0.0,49.83773,24.039227,310.0,NaN,3.708,19.0,295.1,8 / 8,39031,2020-03-19 19:17:52:800
-6.17704,-7.345411,0.363919,0.0,49.83773,24.039227,310.0,NaN,3.708,19.0,295.1,8 / 8,39531,2020-03-19 19:17:53:300
-10.611102,-14.12579,5.161899,0.0,49.83773,24.039227,310.0,NaN,3.708,19.0,295.1,8 / 8,40031,2020-03-19 19:17:53:800
-5.889736,-11.75553,1.244985,0.0,49.83773,24.039227,310.0,NaN,3.708,19.0,295.1,8 / 8,40531,2020-03-19 19:17:54:300
0.871489,-11.597513,-1.561019,0.0,49.83773,24.039227,310.0,NaN,3.708,19.0,295.1,8 / 8,41031,2020-03-19 19:17:54:800
-3.375824,-2.451662,0.790087,0.0,49.83773,24.039227,310.0,NaN,3.708,19.0,295.1,8 / 8,41531,2020-03-19 19:17:55:300
-5.755661,-7.790732,-0.593762,0.0,49.83773,24.039227,310.0,NaN,3.708,19.0,295.1,8 / 8,42031,2020-03-19 19:17:55:800
-13.445837,-14.240712,6.761226,0.0,49.83773,24.039227,310.0,NaN,3.708,19.0,295.1,8 / 8,42531,2020-03-19 19:17:56:300
-10.19451,-20.590134,-14.705187,0.0,49.83773,24.039227,310.0,NaN,3.708,19.0,295.1,8 / 8,43031,2020-03-19 19:17:56:800
-10.788273,-14.092271,5.070919,0.0,49.83773,24.039227,310.0,NaN,3.708,19.0,295.1,8 / 8,43531,2020-03-19 19:17:57:300
-2.351106,-7.972691,-2.762909,0.0,49.83773,24.039227,310.0,NaN,3.708,19.0,295.1,8 / 8,44031,2020-03-19 19:17:57:800
0.866701,-11.913548,-3.356671,0.0,49.83773,24.039227,310.0,NaN,3.708,19.0,295.1,8 / 8,44530,2020-03-19 19:17:58:299
-2.983175,-3.859453,0.177171,0.0,49.83773,24.039227,310.0,NaN,3.708,19.0,295.1,8 / 8,45030,2020-03-19 19:17:58:799
-4.620809,-7.905654,-0.009577,0.0,49.83773,24.039227,310.0,NaN,3.708,19.0,295.1,8 / 8,45531,2020-03-19 19:17:59:300
-9.562442,-11.750742,0.071826,0.0,49.83773,24.039227,310.0,NaN,3.708,19.0,295.1,8 / 8,46030,2020-03-19 19:17:59:799
5.750873,9.270349,22.821531,0.0,49.83773,24.039227,310.0,NaN,3.708,19.0,295.1,8 / 8,46531,2020-03-19 19:18:00:300
-3.174711,-11.980585,-2.466028,0.0,49.83773,24.039227,310.0,NaN,3.708,19.0,295.1,8 / 8,47031,2020-03-19 19:18:00:800
-0.316035,5.051766,9.605537,0.0,49.83773,24.039227,310.0,NaN,3.708,19.0,295.1,8 / 8,47531,2020-03-19 19:18:01:300
-2.001553,-11.133038,-0.430956,0.0,49.83773,24.039227,310.0,NaN,3.708,19.0,295.1,8 / 8,48030,2020-03-19 19:18:01:799
-1.905785,-6.29675,-3.217807,0.0,49.83773,24.039227,310.0,NaN,3.708,19.0,295.1,8 / 8,48531,2020-03-19 19:18:02:300
-2.863465,-7.752425,0.043096,0.0,49.83773,24.039227,310.0,NaN,3.708,19.0,295.1,8 / 8,49031,2020-03-19 19:18:02:800
1.450886,-6.660669,0.464475,0.0,49.83773,24.039227,310.0,NaN,3.708,19.0,295.1,8 / 8,49531,2020-03-19 19:18:03:300
-0.823605,-8.896853,1.307234,0.0,49.83773,24.039227,310.0,NaN,3.708,19.0,295.1,8 / 8,50031,2020-03-19 19:18:03:800
-10.998962,-13.077129,2.355895,0.0,49.83773,24.039227,310.0,NaN,3.708,19.0,295.1,8 / 8,50531,2020-03-19 19:18:04:300
-15.777789,-22.926876,-15.495274,0.0,49.83773,24.039227,310.0,NaN,3.708,19.0,295.1,8 / 8,51031,2020-03-19 19:18:04:800
-1.570596,-12.98615,-2.72939,0.0,49.83773,24.039227,310.0,NaN,3.708,19.0,295.1,8 / 8,51531,2020-03-19 19:18:05:300
-8.896853,2.547431,32.728737,0.0,49.83773,24.039227,310.0,NaN,3.708,19.0,295.1,8 / 8,52031,2020-03-19 19:18:05:800
-2.451662,-12.435484,-3.576937,0.0,49.83773,24.039227,310.0,NaN,3.708,19.0,295.1,8 / 8,52530,2020-03-19 19:18:06:299
-14.231135,-16.424223,-21.021091,0.0,49.83773,24.039227,310.0,NaN,3.708,19.0,295.1,8 / 8,53031,2020-03-19 19:18:06:800
-5.544971,-7.311892,-2.700659,0.0,49.83773,24.039227,310.0,NaN,3.708,19.0,295.1,8 / 8,53530,2020-03-19 19:18:07:299
-2.906561,-2.767697,1.584962,0.0,49.83773,24.039227,310.0,NaN,3.708,19.0,295.1,8 / 8,54030,2020-03-19 19:18:07:799
-4.252102,-7.8865,-0.608127,0.0,49.83773,24.039227,310.0,NaN,3.708,19.0,295.1,8 / 8,54531,2020-03-19 19:18:08:300
-12.220005,-16.132132,5.329493,0.0,49.83773,24.039227,310.0,NaN,3.708,19.0,295.1,8 / 8,55031,2020-03-19 19:18:08:800
-10.831368,-19.297266,-9.89763,0.0,49.83773,24.039227,310.0,NaN,3.708,19.0,295.1,0 / 0,55531,2020-03-19 19:18:09:300
-9.950302,-12.071565,0.043096,0.0,49.83773,24.039227,310.0,NaN,3.708,19.0,295.1,0 / 1,56031,2020-03-19 19:18:09:800
-0.363919,-6.229713,-3.533841,0.0,49.83773,24.039227,310.0,NaN,3.708,19.0,295.1,0 / 1,56530,2020-03-19 19:18:10:299
-0.258574,-11.252748,-2.030283,0.0,49.83773,24.039227,310.0,NaN,3.708,19.0,295.1,0 / 2,57030,2020-03-19 19:18:10:799
-3.083732,-2.513912,1.106121,0.0,49.83773,24.039227,310.0,NaN,3.708,19.0,295.1,0 / 2,57531,2020-03-19 19:18:11:300
-0.837971,-8.101978,-0.033519,0.0,49.83773,24.039227,310.0,NaN,3.708,19.0,295.1,0 / 8,58031,2020-03-19 19:18:11:800
1.182736,-6.995857,0.665588,0.0,49.83773,24.039227,310.0,NaN,3.708,19.0,295.1,0 / 8,58531,2020-03-19 19:18:12:300
0.804452,-10.117896,0.545878,0.0,49.83773,24.039227,310.0,NaN,3.708,19.0,295.1,0 / 10,59031,2020-03-19 19:18:12:800
-5.171476,-12.186486,-0.995988,0.0,49.83773,24.039227,310.0,NaN,3.708,19.0,295.1,0 / 10,59531,2020-03-19 19:18:13:300
4.29041,-4.357447,-5.573701,0.0,49.83773,24.039227,310.0,NaN,3.708,19.0,295.1,0 / 12,60030,2020-03-19 19:18:13:799
-4.261679,-15.136143,-3.217807,0.0,49.83773,24.039227,310.0,NaN,3.708,19.0,295.1,0 / 12,60531,2020-03-19 19:18:14:300
-4.328717,-6.86657,-5.257667,0.0,49.83798,24.038095,354.0,NaN,5.04,34.5,320.7,10 / 13,61030,2020-03-19 19:18:14:799
0.320823,-10.860099,-2.75812,0.0,49.83798,24.038095,354.0,NaN,5.04,34.5,320.7,10 / 13,61531,2020-03-19 19:18:15:300
-3.969586,-1.982399,2.140417,0.0,49.83798,24.038095,354.0,NaN,5.04,34.5,320.7,10 / 13,62030,2020-03-19 19:18:15:799
-4.285621,-6.162675,0.181959,0.0,49.83798,24.038095,354.0,NaN,5.04,34.5,320.7,10 / 13,62531,2020-03-19 19:18:16:300
-3.998317,-11.271901,-2.825158,0.0,49.83798,24.038095,354.0,NaN,5.04,34.5,320.7,10 / 13,63031,2020-03-19 19:18:16:800
-0.593762,9.988609,4.654328,0.0,49.83798,24.038095,354.0,NaN,5.04,34.5,320.7,10 / 13,63531,2020-03-19 19:18:17:300
-1.125275,-13.326127,-0.177171,0.0,49.83798,24.038095,354.0,NaN,5.04,34.5,320.7,10 / 13,64031,2020-03-19 19:18:17:800
-21.571756,-26.168625,-20.369867,0.0,49.83798,24.038095,354.0,NaN,5.04,34.5,320.7,10 / 13,64531,2020-03-19 19:18:18:300
-2.470816,-11.061212,-0.790087,0.0,49.83798,24.038095,354.0,NaN,5.04,34.5,320.7,10 / 13,65031,2020-03-19 19:18:18:800
-2.700659,-6.143522,-6.272808,0.0,49.83798,24.038095,354.0,NaN,5.04,34.5,320.7,10 / 13,65531,2020-03-19 19:18:19:300
-1.412579,-7.661445,1.067814,0.0,49.83798,24.038095,354.0,NaN,5.04,34.5,320.7,10 / 13,66031,2020-03-19 19:18:19:800
0.526724,-7.297527,1.881843,0.0,49.83798,24.038095,354.0,NaN,5.04,34.5,320.7,10 / 13,66530,2020-03-19 19:18:20:299
1.862689,-13.656527,-1.010353,0.0,49.83798,24.038095,354.0,NaN,5.04,34.5,320.7,10 / 13,67031,2020-03-19 19:18:20:800
-4.692635,-12.679692,0.004788,0.0,49.83798,24.038095,354.0,NaN,5.04,34.5,320.7,10 / 13,67531,2020-03-19 19:18:21:300
-4.754884,-4.209007,-4.074931,0.0,49.83798,24.038095,354.0,NaN,5.04,34.5,320.7,10 / 13,68031,2020-03-19 19:18:21:800
-0.430956,-14.00608,-4.788403,0.0,49.83798,24.038095,354.0,NaN,5.04,34.5,320.7,10 / 13,68531,2020-03-19 19:18:22:300
-1.388637,-12.425907,-4.927267,0.0,49.83798,24.038095,354.0,NaN,5.04,34.5,320.7,10 / 13,69031,2020-03-19 19:18:22:800
-2.710236,-9.672575,-1.403002,0.0,49.83798,24.038095,354.0,NaN,5.04,34.5,320.7,10 / 13,69531,2020-03-19 19:18:23:300
-2.499546,-2.130839,1.412579,0.0,49.83798,24.038095,354.0,NaN,5.04,34.5,320.7,10 / 13,70031,2020-03-19 19:18:23:800
-6.545747,-6.947973,-0.694318,0.0,49.83798,24.038095,354.0,NaN,5.04,34.5,320.7,10 / 13,70531,2020-03-19 19:18:24:300
-12.042834,-12.20564,1.326388,0.0,49.83798,24.038095,354.0,NaN,5.04,34.5,320.7,10 / 13,71031,2020-03-19 19:18:24:800
-1.043872,-6.823475,20.168755,0.0,49.83798,24.038095,354.0,NaN,5.04,34.5,320.7,10 / 13,71531,2020-03-19 19:18:25:300
-2.063802,-12.119449,-0.277727,0.0,49.83798,24.038095,354.0,NaN,5.04,34.5,320.7,10 / 13,72031,2020-03-19 19:18:25:800
-4.352658,-9.945514,-11.616667,0.0,49.83798,24.038095,354.0,NaN,5.04,34.5,320.7,10 / 13,72531,2020-03-19 19:18:26:300
0.234632,-12.813767,-0.134075,0.0,49.83798,24.038095,354.0,NaN,5.04,34.5,320.7,10 / 13,73031,2020-03-19 19:18:26:800
-2.987964,-6.205771,-6.129156,0.0,49.83798,24.038095,354.0,NaN,5.04,34.5,320.7,10 / 13,73530,2020-03-19 19:18:27:299
-1.608903,-7.450755,1.340753,0.0,49.83798,24.038095,354.0,NaN,5.04,34.5,320.7,10 / 13,74031,2020-03-19 19:18:27:800
1.053449,-7.532158,1.479617,0.0,49.83798,24.038095,354.0,NaN,5.04,34.5,320.7,10 / 13,74531,2020-03-19 19:18:28:300
0.905008,-14.42746,-2.466028,0.0,49.83798,24.038095,354.0,NaN,5.04,34.5,320.7,10 / 13,75031,2020-03-19 19:18:28:800
-6.904877,-13.019669,2.03986,0.0,49.83798,24.038095,354.0,NaN,5.04,34.5,320.7,10 / 13,75531,2020-03-19 19:18:29:300
-7.503428,-9.643845,-8.944737,0.0,49.83798,24.038095,354.0,NaN,5.04,34.5,320.7,10 / 13,76031,2020-03-19 19:18:29:800
0.349553,-11.348516,1.632846,0.0,49.83798,24.038095,354.0,NaN,5.04,34.5,320.7,10 / 13,76530,2020-03-19 19:18:30:299
1.288081,-4.232949,-4.395754,0.0,49.83798,24.038095,354.0,NaN,5.04,34.5,320.7,10 / 13,77031,2020-03-19 19:18:30:800
0.521936,-11.884817,-1.278504,0.0,49.83798,24.038095,354.0,NaN,5.04,34.5,320.7,10 / 13,77530,2020-03-19 19:18:31:299
-3.505111,-1.752556,1.685518,0.0,49.83798,24.038095,354.0,NaN,5.04,34.5,320.7,10 / 13,78031,2020-03-19 19:18:31:800
-1.996764,-7.599196,-0.421379,0.0,49.83798,24.038095,354.0,NaN,5.04,34.5,320.7,10 / 13,78530,2020-03-19 19:18:32:299
-3.160346,-12.741941,-3.849876,0.0,49.83798,24.038095,354.0,NaN,5.04,34.5,320.7,10 / 13,79030,2020-03-19 19:18:32:799
-0.320823,-10.951078,18.511967,0.0,49.83798,24.038095,354.0,NaN,5.04,34.5,320.7,10 / 13,79531,2020-03-19 19:18:33:300
-1.628057,-12.47858,-3.150769,0.0,49.83798,24.038095,354.0,NaN,5.04,34.5,320.7,10 / 13,80030,2020-03-19 19:18:33:799
-4.841076,-6.909666,-6.612785,0.0,49.83798,24.038095,354.0,NaN,5.04,34.5,320.7,10 / 13,80531,2020-03-19 19:18:34:300
-2.379836,-18.310854,-0.56982,0.0,49.83798,24.038095,354.0,NaN,5.04,34.5,320.7,10 / 13,81030,2020-03-19 19:18:34:799
0.320823,-4.204218,-3.174711,0.0,49.83798,24.038095,354.0,NaN,5.04,34.5,320.7,10 / 13,81531,2020-03-19 19:18:35:300
0.301669,-10.754754,-1.532289,0.0,49.83798,24.038095,354.0,NaN,5.04,34.5,320.7,10 / 13,82031,2020-03-19 19:18:35:800
-2.825158,-1.16837,2.03986,0.0,49.83798,24.038095,354.0,NaN,5.04,34.5,320.7,10 / 13,82531,2020-03-19 19:18:36:300
-3.859453,-7.07726,-1.058237,0.0,49.83798,24.038095,354.0,NaN,5.04,34.5,320.7,10 / 13,83030,2020-03-19 19:18:36:799
-5.975927,-12.727576,-2.240973,0.0,49.83798,24.038095,354.0,NaN,5.04,34.5,320.7,10 / 13,83530,2020-03-19 19:18:37:299
-1.465251,-10.189722,27.672184,0.0,49.83798,24.038095,354.0,NaN,5.04,34.5,320.7,10 / 13,84030,2020-03-19 19:18:37:799
-3.533841,-15.006856,-0.3304,0.0,49.83798,24.038095,354.0,NaN,5.04,34.5,320.7,10 / 13,84530,2020-03-19 19:18:38:299
-4.553771,-17.329231,-2.37026,0.0,49.83798,24.038095,354.0,NaN,5.04,34.5,320.7,10 / 13,85031,2020-03-19 19:18:38:800
-15.739482,-16.25184,4.510676,0.0,49.83798,24.038095,354.0,NaN,5.04,34.5,320.7,10 / 13,85531,2020-03-19 19:18:39:300
-14.245501,-16.261417,-9.275137,0.0,49.83798,24.038095,354.0,NaN,5.04,34.5,320.7,10 / 13,86030,2020-03-19 19:18:39:799
-0.502782,-12.061988,1.422156,0.0,49.83798,24.038095,354.0,NaN,5.04,34.5,320.7,10 / 13,86531,2020-03-19 19:18:40:300
-2.202665,-2.121263,1.355118,0.0,49.83798,24.038095,354.0,NaN,5.04,34.5,320.7,10 / 13,87030,2020-03-19 19:18:40:799
-1.058237,-8.283937,-0.229843,0.0,49.83798,24.038095,354.0,NaN,5.04,34.5,320.7,10 / 13,87530,2020-03-19 19:18:41:299
-0.196325,-6.272808,0.167594,0.0,49.83798,24.038095,354.0,NaN,5.04,34.5,320.7,10 / 13,88030,2020-03-19 19:18:41:799
-8.384495,-18.47366,-0.229843,0.0,49.83798,24.038095,354.0,NaN,5.04,34.5,320.7,10 / 13,88531,2020-03-19 19:18:42:300
-2.72939,-15.035586,-4.036624,0.0,49.83798,24.038095,354.0,NaN,5.04,34.5,320.7,10 / 13,89031,2020-03-19 19:18:42:800
1.072602,-2.317587,11.51611,0.0,49.83798,24.038095,354.0,NaN,5.04,34.5,320.7,10 / 13,89531,2020-03-19 19:18:43:300
-2.964022,-12.694057,-4.43885,0.0,49.83798,24.038095,354.0,NaN,5.04,34.5,320.7,10 / 13,90031,2020-03-19 19:18:43:800
-4.132392,-9.844957,-7.292738,0.0,49.83798,24.038095,354.0,NaN,5.04,34.5,320.7,10 / 13,90531,2020-03-19 19:18:44:300
0.699107,-11.492168,-2.470816,0.0,49.83798,24.038095,354.0,NaN,5.04,34.5,320.7,10 / 13,91031,2020-03-19 19:18:44:800
-2.451662,-0.497994,2.37026,0.0,49.83798,24.038095,354.0,NaN,5.04,34.5,320.7,10 / 13,91531,2020-03-19 19:18:45:300
-1.656788,-7.240066,-0.608127,0.0,49.83798,24.038095,354.0,NaN,5.04,34.5,320.7,10 / 13,92031,2020-03-19 19:18:45:800
-0.622492,-10.82658,-2.451662,0.0,49.83798,24.038095,354.0,NaN,5.04,34.5,320.7,10 / 13,92530,2020-03-19 19:18:46:299
-3.763685,-14.599842,7.13951,0.0,49.83798,24.038095,354.0,NaN,5.04,34.5,320.7,10 / 13,93030,2020-03-19 19:18:46:799
-9.816227,-12.492945,-0.416591,0.0,49.83798,24.038095,354.0,NaN,5.04,34.5,320.7,10 / 13,93530,2020-03-19 19:18:47:299
-14.197616,-18.195932,-13.359646,0.0,49.83798,24.038095,354.0,NaN,5.04,34.5,320.7,10 / 13,94030,2020-03-19 19:18:47:799
-7.920019,-12.320562,1.005565,0.0,49.83798,24.038095,354.0,NaN,5.04,34.5,320.7,10 / 13,94531,2020-03-19 19:18:48:300
-1.201889,-2.288857,-7.225701,0.0,49.83798,24.038095,354.0,NaN,5.04,34.5,320.7,10 / 13,95031,2020-03-19 19:18:48:800
-0.248997,-11.080365,-4.67827,0.0,49.83798,24.038095,354.0,NaN,5.04,34.5,320.7,10 / 13,95531,2020-03-19 19:18:49:300
-1.968034,2.121263,1.824382,0.0,49.83798,24.038095,354.0,NaN,5.04,34.5,320.7,10 / 13,96031,2020-03-19 19:18:49:800
-3.653552,-7.144298,-0.536301,0.0,49.83798,24.038095,354.0,NaN,5.04,34.5,320.7,10 / 13,96530,2020-03-19 19:18:50:299
-7.967903,-12.65575,0.296881,0.0,49.83798,24.038095,354.0,NaN,5.04,34.5,320.7,10 / 13,97030,2020-03-19 19:18:50:799
-2.873042,-6.943185,16.610971,0.0,49.83798,24.038095,354.0,NaN,5.04,34.5,320.7,10 / 13,97530,2020-03-19 19:18:51:299
-1.972822,-16.94616,-5.061342,0.0,49.83798,24.038095,354.0,NaN,5.04,34.5,320.7,10 / 13,98030,2020-03-19 19:18:51:799
-3.471592,-5.865794,-2.341529,0.0,49.83798,24.038095,354.0,NaN,5.04,34.5,320.7,10 / 13,98530,2020-03-19 19:18:52:299
0.009577,-13.235147,-3.557784,0.0,49.83798,24.038095,354.0,NaN,5.04,34.5,320.7,10 / 13,99031,2020-03-19 19:18:52:800
-2.992752,-13.637373,-8.944737,0.0,49.83798,24.038095,354.0,NaN,5.04,34.5,320.7,10 / 13,99531,2020-03-19 19:18:53:300
-0.670376,-10.611102,-1.091756,0.0,49.83798,24.038095,354.0,NaN,5.04,34.5,320.7,10 / 13,100031,2020-03-19 19:18:53:800
-2.360683,-1.594538,2.011129,0.0,49.83798,24.038095,354.0,NaN,5.04,34.5,320.7,10 / 13,100531,2020-03-19 19:18:54:300
-2.331952,-7.671022,-0.35913,0.0,49.83798,24.038095,354.0,NaN,5.04,34.5,320.7,10 / 13,101031,2020-03-19 19:18:54:800
-4.395754,-11.573571,-2.03986,0.0,49.83798,24.038095,354.0,NaN,5.04,34.5,320.7,10 / 13,101531,2020-03-19 19:18:55:300
-9.993398,1.580173,-11.587936,0.0,49.83798,24.038095,354.0,NaN,5.04,34.5,320.7,10 / 13,102031,2020-03-19 19:18:55:800
-3.409343,-13.158532,-3.677494,0.0,49.83798,24.038095,354.0,NaN,5.04,34.5,320.7,10 / 13,102531,2020-03-19 19:18:56:300
-14.159308,-18.11453,-20.077776,0.0,49.83798,24.038095,354.0,NaN,5.04,34.5,320.7,10 / 13,103031,2020-03-19 19:18:56:800
-3.007117,-7.541735,0.799663,0.0,49.83798,24.038095,354.0,NaN,5.04,34.5,320.7,10 / 13,103531,2020-03-19 19:18:57:300
-2.351106,-3.744531,2.513912,0.0,49.83798,24.038095,354.0,NaN,5.04,34.5,320.7,10 / 13,104031,2020-03-19 19:18:57:800
-1.517924,-8.513782,0.852336,0.0,49.83798,24.038095,354.0,NaN,5.04,34.5,320.7,10 / 13,104530,2020-03-19 19:18:58:299
1.278504,-8.872911,0.043096,0.0,49.83798,24.038095,354.0,NaN,5.04,34.5,320.7,10 / 13,105031,2020-03-19 19:18:58:800
-1.656788,-10.941502,0.861913,0.0,49.83798,24.038095,354.0,NaN,5.04,34.5,320.7,10 / 13,105531,2020-03-19 19:18:59:300
-3.969586,-13.354857,-3.083732,0.0,49.83798,24.038095,354.0,NaN,5.04,34.5,320.7,10 / 13,106030,2020-03-19 19:18:59:799
-1.613692,-9.672575,-5.133168,0.0,49.83798,24.038095,354.0,NaN,5.04,34.5,320.7,10 / 13,106531,2020-03-19 19:19:00:300
-0.991199,-9.667787,-1.177947,0.0,49.83798,24.038095,354.0,NaN,5.04,34.5,320.7,10 / 13,107031,2020-03-19 19:19:00:800
-2.097321,0.292093,2.767697,0.0,49.83798,24.038095,354.0,NaN,5.04,34.5,320.7,10 / 13,107531,2020-03-19 19:19:01:300
-5.655104,-6.488286,-0.933739,0.0,49.83798,24.038095,354.0,NaN,5.04,34.5,320.7,10 / 13,108031,2020-03-19 19:19:01:800
-7.345411,-12.717999,-1.838747,0.0,49.83798,24.038095,354.0,NaN,5.04,34.5,320.7,10 / 13,108531,2020-03-19 19:19:02:300
0.555455,-10.874464,23.582888,0.0,49.83798,24.038095,354.0,NaN,5.04,34.5,320.7,10 / 13,109031,2020-03-19 19:19:02:800
-9.155427,-11.654974,-1.388637,0.0,49.83798,24.038095,354.0,NaN,5.04,34.5,320.7,10 / 13,109531,2020-03-19 19:19:03:300
-6.660669,5.214572,-2.815581,0.0,49.83798,24.038095,354.0,NaN,5.04,34.5,320.7,10 / 13,110031,2020-03-19 19:19:03:800
-1.848324,-12.65575,-3.65834,0.0,49.83798,24.038095,354.0,NaN,5.04,34.5,320.7,10 / 13,110531,2020-03-19 19:19:04:300
-7.278373,-14.686033,-10.065224,0.0,49.83798,24.038095,354.0,NaN,5.04,34.5,320.7,10 / 13,111031,2020-03-19 19:19:04:800
-3.596091,-9.016563,-1.484405,0.0,49.83798,24.038095,354.0,NaN,5.04,34.5,320.7,10 / 13,111530,2020-03-19 19:19:05:299
-2.37026,-1.192312,3.055001,0.0,49.83798,24.038095,354.0,NaN,5.04,34.5,320.7,10 / 13,112030,2020-03-19 19:19:05:799
-5.473145,-6.517017,-0.713472,0.0,49.83798,24.038095,354.0,NaN,5.04,34.5,320.7,10 / 13,112530,2020-03-19 19:19:06:299
-5.061342,-11.808203,-2.537854,0.0,49.83798,24.038095,354.0,NaN,5.04,34.5,320.7,10 / 13,113030,2020-03-19 19:19:06:799
-2.743755,1.244985,-0.440533,0.0,49.83798,24.038095,354.0,NaN,5.04,34.5,320.7,10 / 13,113530,2020-03-19 19:19:07:299
-3.232172,-13.469779,-2.446874,0.0,49.83798,24.038095,354.0,NaN,5.04,34.5,320.7,10 / 13,114030,2020-03-19 19:19:07:799
-4.285621,8.073248,2.925715,0.0,49.83798,24.038095,354.0,NaN,5.04,34.5,320.7,10 / 13,114530,2020-03-19 19:19:08:299
-1.388637,-12.990938,-2.394202,0.0,49.83798,24.038095,354.0,NaN,5.04,34.5,320.7,10 / 13,115031,2020-03-19 19:19:08:800
-7.206547,-15.710752,-13.814544,0.0,49.83798,24.038095,354.0,NaN,5.04,34.5,320.7,10 / 13,115530,2020-03-19 19:19:09:299
-1.666364,-8.820239,-1.565808,0.0,49.83798,24.038095,354.0,NaN,5.04,34.5,320.7,10 / 13,116031,2020-03-19 19:19:09:800
-2.394202,-1.335964,2.48997,0.0,49.83798,24.038095,354.0,NaN,5.04,34.5,320.7,10 / 13,116531,2020-03-19 19:19:10:300
-4.151545,-8.657434,-1.383848,0.0,49.83798,24.038095,354.0,NaN,5.04,34.5,320.7,10 / 13,117031,2020-03-19 19:19:10:800
-5.45878,-11.913548,-2.451662,0.0,49.83798,24.038095,354.0,NaN,5.04,34.5,320.7,10 / 13,117531,2020-03-19 19:19:11:300
-7.120356,6.713342,3.098097,0.0,49.83798,24.038095,354.0,NaN,5.04,34.5,320.7,10 / 13,118031,2020-03-19 19:19:11:800
-4.19943,-13.292608,-3.888183,0.0,49.83798,24.038095,354.0,NaN,5.04,34.5,320.7,10 / 13,118530,2020-03-19 19:19:12:299
-3.691859,5.530606,0.565032,0.0,49.83798,24.038095,354.0,NaN,5.04,34.5,320.7,10 / 13,119031,2020-03-19 19:19:12:800
-4.094085,-11.932701,-1.915361,0.0,49.83798,24.038095,354.0,NaN,5.04,34.5,320.7,10 / 13,119531,2020-03-19 19:19:13:300
-2.686294,-6.038176,-6.574477,0.0,49.83798,24.038095,354.0,NaN,5.04,34.5,320.7,10 / 13,120031,2020-03-19 19:19:13:800
-2.494758,-7.268796,3.495535,0.0,49.83798,24.038095,354.0,NaN,5.04,34.5,320.7,10 / 13,120531,2020-03-19 19:19:14:300
-0.751779,-4.189853,2.049437,0.0,49.83798,24.038095,354.0,NaN,5.04,34.5,320.7,10 / 13,121031,2020-03-19 19:19:14:800
-7.934384,-6.133945,0.186748,0.0,49.83798,24.038095,354.0,NaN,5.04,34.5,320.7,10 / 13,121531,2020-03-19 19:19:15:300
-9.849746,-15.380352,-1.086968,0.0,49.83798,24.038095,354.0,NaN,5.04,34.5,320.7,10 / 13,122031,2020-03-19 19:19:15:800
-0.876278,5.602432,2.212242,0.0,49.83798,24.038095,354.0,NaN,5.04,34.5,320.7,10 / 13,122531,2020-03-19 19:19:16:300
-3.05979,-17.0946,-3.318364,0.0,49.83798,24.038095,354.0,NaN,5.04,34.5,320.7,10 / 13,123031,2020-03-19 19:19:16:800
-3.160346,-8.580819,-4.089296,0.0,49.83798,24.038095,354.0,NaN,5.04,34.5,320.7,10 / 13,123531,2020-03-19 19:19:17:300
-0.244209,-13.64695,-3.663128,0.0,49.83798,24.038095,354.0,NaN,5.04,34.5,320.7,10 / 13,124031,2020-03-19 19:19:17:800
-4.539406,-3.236961,-4.424484,0.0,49.83798,24.038095,354.0,NaN,5.04,34.5,320.7,10 / 13,124531,2020-03-19 19:19:18:300
0.727837,-11.348516,-1.197101,0.0,49.83798,24.038095,354.0,NaN,5.04,34.5,320.7,10 / 13,125030,2020-03-19 19:19:18:799
-2.451662,-0.967257,1.953669,0.0,49.83798,24.038095,354.0,NaN,5.04,34.5,320.7,10 / 13,125530,2020-03-19 19:19:19:299
-1.067814,-8.863335,-0.067038,0.0,49.83798,24.038095,354.0,NaN,5.04,34.5,320.7,10 / 13,126030,2020-03-19 19:19:19:799
-0.258574,-10.089166,-0.354342,0.0,49.83798,24.038095,354.0,NaN,5.04,34.5,320.7,10 / 13,126530,2020-03-19 19:19:20:299
-4.271256,-15.926229,11.128249,0.0,49.83798,24.038095,354.0,NaN,5.04,34.5,320.7,0 / 0,127030,2020-03-19 19:19:20:799
-2.829946,-13.651738,-3.308787,0.0,49.83798,24.038095,354.0,NaN,5.04,34.5,320.7,0 / 1,127531,2020-03-19 19:19:21:300
-6.684611,-7.723695,-4.443638,0.0,49.83805,24.036884,320.9,NaN,,26.682,,0 / 1,128030,2020-03-19 19:19:21:799
0.584185,-11.990162,-0.622492,0.0,49.83805,24.036884,320.9,NaN,,26.682,,0 / 3,128531,2020-03-19 19:19:22:300
-2.604891,-1.776498,1.666364,0.0,49.83805,24.036884,320.9,NaN,,26.682,,0 / 3,129030,2020-03-19 19:19:22:799
-3.284845,-7.915231,-0.316035,0.0,49.83805,24.036884,320.9,NaN,,26.682,,0 / 8,129530,2020-03-19 19:19:23:299
-2.226607,0.742203,2.255338,0.0,49.83805,24.036884,320.9,NaN,,26.682,,0 / 8,130031,2020-03-19 19:19:23:800
-5.06613,-6.885724,-0.603339,0.0,49.83805,24.036884,320.9,NaN,,26.682,,0 / 8,130530,2020-03-19 19:19:24:299
-3.213019,-9.878476,-2.006341,0.0,49.83805,24.036884,320.9,NaN,,26.682,,0 / 8,131031,2020-03-19 19:19:24:800
-2.183512,-9.136273,26.144682,0.0,49.83805,24.036884,320.9,NaN,,26.682,,0 / 9,131530,2020-03-19 19:19:25:299
-1.929727,-14.595054,-4.707,0.0,49.83805,24.036884,320.9,NaN,,26.682,,0 / 9,132031,2020-03-19 19:19:25:800
-2.509123,-7.484274,-5.971139,0.0,49.83805,24.036884,320.9,NaN,,26.682,,0 / 9,132531,2020-03-19 19:19:26:300
-0.038307,-11.118672,-1.532289,0.0,49.83792,24.036646,326.0,NaN,3.204,35.0,0.0,9 / 9,133030,2020-03-19 19:19:26:799
-2.073379,-1.632845,2.652776,0.0,49.83792,24.036646,326.0,NaN,3.204,35.0,0.0,9 / 9,133531,2020-03-19 19:19:27:300
-1.862689,-8.346187,-0.153229,0.0,49.83792,24.036646,326.0,NaN,3.204,35.0,0.0,9 / 9,134031,2020-03-19 19:19:27:800
-2.595315,-1.450886,2.207454,0.0,49.83792,24.036646,326.0,NaN,3.204,35.0,0.0,9 / 9,134531,2020-03-19 19:19:28:300
-3.428497,-7.359776,-0.469264,0.0,49.83792,24.036646,326.0,NaN,3.204,35.0,0.0,9 / 9,135031,2020-03-19 19:19:28:800
-3.892972,-11.295844,-3.198653,0.0,49.83792,24.036646,326.0,NaN,3.204,35.0,0.0,9 / 9,135530,2020-03-19 19:19:29:299
-6.526593,1.508347,-4.625597,0.0,49.83792,24.036646,326.0,NaN,3.204,35.0,0.0,9 / 9,136030,2020-03-19 19:19:29:799
-1.374272,-13.029245,-3.567361,0.0,49.83792,24.036646,326.0,NaN,3.204,35.0,0.0,9 / 9,136530,2020-03-19 19:19:30:299
-8.939949,-17.664421,-16.266207,0.0,49.83792,24.036646,326.0,NaN,3.204,35.0,0.0,9 / 9,137031,2020-03-19 19:19:30:800
-6.210559,-7.570465,-2.054225,0.0,49.83792,24.036646,326.0,NaN,3.204,35.0,0.0,9 / 9,137531,2020-03-19 19:19:31:300
-3.074155,-1.182736,3.280056,0.0,49.83792,24.036646,326.0,NaN,3.204,35.0,0.0,9 / 9,138031,2020-03-19 19:19:31:800
-4.927267,-7.982268,-0.560243,0.0,49.83792,24.036646,326.0,NaN,3.204,35.0,0.0,9 / 9,138531,2020-03-19 19:19:32:300
-10.25676,-11.860875,-0.627281,0.0,49.83792,24.036646,326.0,NaN,3.204,35.0,0.0,9 / 9,139030,2020-03-19 19:19:32:799
-7.034164,-7.412448,-0.158017,0.0,49.83792,24.036646,326.0,NaN,3.204,35.0,0.0,9 / 9,139531,2020-03-19 19:19:33:300
-11.209652,-13.517663,-0.751779,0.0,49.83792,24.036646,326.0,NaN,3.204,35.0,0.0,9 / 9,140031,2020-03-19 19:19:33:800
2.207454,-1.288081,28.921959,0.0,49.83792,24.036646,326.0,NaN,3.204,35.0,0.0,9 / 9,140530,2020-03-19 19:19:34:299
-0.497994,-12.923901,0.521936,0.0,49.83792,24.036646,326.0,NaN,3.204,35.0,0.0,9 / 9,141030,2020-03-19 19:19:34:799
-2.853888,-7.388506,-12.765883,0.0,49.83792,24.036646,326.0,NaN,3.204,35.0,0.0,9 / 9,141530,2020-03-19 19:19:35:299
-2.451662,-8.001422,0.114922,0.0,49.83792,24.036646,326.0,NaN,3.204,35.0,0.0,9 / 9,142031,2020-03-19 19:19:35:800
1.125275,-7.053318,0.952892,0.0,49.83792,24.036646,326.0,NaN,3.204,35.0,0.0,9 / 9,142530,2020-03-19 19:19:36:299
1.426944,-13.402741,-3.485957,0.0,49.83792,24.036646,326.0,NaN,3.204,35.0,0.0,9 / 9,143030,2020-03-19 19:19:36:799
1.249773,-9.074024,1.570596,0.0,49.83792,24.036646,326.0,NaN,3.204,35.0,0.0,9 / 9,143531,2020-03-19 19:19:37:300
-0.138864,-11.463438,-2.154781,0.0,49.83792,24.036646,326.0,NaN,3.204,35.0,0.0,9 / 9,144030,2020-03-19 19:19:37:799
-5.736507,-12.287044,0.742203,0.0,49.83792,24.036646,326.0,NaN,3.204,35.0,0.0,9 / 9,144531,2020-03-19 19:19:38:300
-6.713341,-5.980716,-3.667917,0.0,49.83792,24.036646,326.0,NaN,3.204,35.0,0.0,9 / 9,145031,2020-03-19 19:19:38:800
-0.584185,-11.286267,-2.250549,0.0,49.83792,24.036646,326.0,NaN,3.204,35.0,0.0,9 / 9,145530,2020-03-19 19:19:39:299
-2.844312,-3.797204,1.043872,0.0,49.83792,24.036646,326.0,NaN,3.204,35.0,0.0,9 / 9,146030,2020-03-19 19:19:39:799
-2.073379,-9.040505,-0.081403,0.0,49.83792,24.036646,326.0,NaN,3.204,35.0,0.0,9 / 9,146530,2020-03-19 19:19:40:299
2.327164,-9.112331,0.612916,0.0,49.83792,24.036646,326.0,NaN,3.204,35.0,0.0,9 / 9,147031,2020-03-19 19:19:40:800
-2.015918,-14.049175,-2.303222,0.0,49.83792,24.036646,326.0,NaN,3.204,35.0,0.0,9 / 9,147531,2020-03-19 19:19:41:300
2.03986,-9.188946,1.781286,0.0,49.83792,24.036646,326.0,NaN,3.204,35.0,0.0,9 / 9,148031,2020-03-19 19:19:41:800
-3.213019,-8.710106,0.694319,0.0,49.83792,24.036646,326.0,NaN,3.204,35.0,0.0,9 / 9,148531,2020-03-19 19:19:42:300
-8.116343,-12.823344,4.228161,0.0,49.83792,24.036646,326.0,NaN,3.204,35.0,0.0,9 / 9,149031,2020-03-19 19:19:42:800
-8.303091,-13.857639,-10.615891,0.0,49.83792,24.036646,326.0,NaN,3.204,35.0,0.0,9 / 9,149530,2020-03-19 19:19:43:299
-2.753332,-11.262324,-0.847547,0.0,49.83792,24.036646,326.0,NaN,3.204,35.0,0.0,9 / 9,150030,2020-03-19 19:19:43:799
-2.647987,-3.213019,-2.264915,0.0,49.83792,24.036646,326.0,NaN,3.204,35.0,0.0,9 / 9,150531,2020-03-19 19:19:44:300
-1.551443,-9.064447,-0.641646,0.0,49.83792,24.036646,326.0,NaN,3.204,35.0,0.0,9 / 9,151030,2020-03-19 19:19:44:799
2.226608,-9.208099,1.115698,0.0,49.83792,24.036646,326.0,NaN,3.204,35.0,0.0,9 / 9,151530,2020-03-19 19:19:45:299
0.675165,-12.129025,-0.622492,0.0,49.83792,24.036646,326.0,NaN,3.204,35.0,0.0,9 / 9,152030,2020-03-19 19:19:45:799
-3.969586,-13.335704,-2.245761,0.0,49.83792,24.036646,326.0,NaN,3.204,35.0,0.0,9 / 9,152530,2020-03-19 19:19:46:299
0.373495,-9.097966,-3.696647,0.0,49.83792,24.036646,326.0,NaN,3.204,35.0,0.0,9 / 9,153031,2020-03-19 19:19:46:800
-1.47004,-11.496957,-0.469264,0.0,49.83792,24.036646,326.0,NaN,3.204,35.0,0.0,9 / 9,153531,2020-03-19 19:19:47:300
-2.571372,-2.695871,1.848324,0.0,49.83792,24.036646,326.0,NaN,3.204,35.0,0.0,9 / 9,154031,2020-03-19 19:19:47:800
-0.938527,-11.60709,-1.072602,0.0,49.83792,24.036646,326.0,NaN,3.204,35.0,0.0,9 / 9,154531,2020-03-19 19:19:48:300
-3.624821,-2.284068,2.116475,0.0,49.83792,24.036646,326.0,NaN,3.204,35.0,0.0,9 / 9,155031,2020-03-19 19:19:48:800
-1.905785,-8.451532,0.732626,0.0,49.83792,24.036646,326.0,NaN,3.204,35.0,0.0,9 / 9,155530,2020-03-19 19:19:49:299
0.497994,-10.601525,-0.402226,0.0,49.83792,24.036646,326.0,NaN,3.204,35.0,0.0,9 / 9,156030,2020-03-19 19:19:49:799
-2.930503,-17.597382,-8.212111,0.0,49.83792,24.036646,326.0,NaN,3.204,35.0,0.0,9 / 9,156530,2020-03-19 19:19:50:299
-0.277727,-14.302961,-4.357447,0.0,49.83792,24.036646,326.0,NaN,3.204,35.0,0.0,9 / 9,157031,2020-03-19 19:19:50:800
-8.470686,-5.63595,-2.470816,0.0,49.83792,24.036646,326.0,NaN,3.204,35.0,0.0,9 / 9,157530,2020-03-19 19:19:51:299
-0.181959,-11.60709,-5.386954,0.0,49.83792,24.036646,326.0,NaN,3.204,35.0,0.0,9 / 9,158030,2020-03-19 19:19:51:799
-2.964022,-0.895431,2.911349,0.0,49.83792,24.036646,326.0,NaN,3.204,35.0,0.0,9 / 9,158530,2020-03-19 19:19:52:299
-1.963245,-10.237606,-2.896984,0.0,49.83792,24.036646,326.0,NaN,3.204,35.0,0.0,9 / 9,159030,2020-03-19 19:19:52:799
-4.252102,-2.135628,1.934515,0.0,49.83792,24.036646,326.0,NaN,3.204,35.0,0.0,9 / 9,159532,2020-03-19 19:19:53:301
-0.871489,-7.493851,-2.212242,0.0,49.83792,24.036646,326.0,NaN,3.204,35.0,0.0,9 / 9,160031,2020-03-19 19:19:53:800
-5.980716,-11.827356,-2.466028,0.0,49.83792,24.036646,326.0,NaN,3.204,35.0,0.0,9 / 9,160531,2020-03-19 19:19:54:300
-1.47004,-2.044648,-4.697424,0.0,49.83792,24.036646,326.0,NaN,3.204,35.0,0.0,9 / 9,161031,2020-03-19 19:19:54:800
-2.748543,-9.763555,0.153229,0.0,49.83792,24.036646,326.0,NaN,3.204,35.0,0.0,9 / 9,161531,2020-03-19 19:19:55:300
-3.44765,-6.033388,0.043096,0.0,49.83792,24.036646,326.0,NaN,3.204,35.0,0.0,9 / 9,162031,2020-03-19 19:19:55:800
-2.207454,-16.443377,-5.793968,0.0,49.83792,24.036646,326.0,NaN,3.204,35.0,0.0,9 / 9,162531,2020-03-19 19:19:56:300
-1.781286,-8.307879,-0.459687,0.0,49.83792,24.036646,326.0,NaN,3.204,35.0,0.0,9 / 9,163030,2020-03-19 19:19:56:799
-3.715801,-20.556616,-3.457227,0.0,49.83792,24.036646,326.0,NaN,3.204,35.0,0.0,9 / 9,163531,2020-03-19 19:19:57:300
-6.220136,-11.832145,-0.646434,0.0,49.83792,24.036646,326.0,NaN,3.204,35.0,0.0,9 / 9,164030,2020-03-19 19:19:57:799
-3.998317,-6.392518,-5.209783,0.0,49.83792,24.036646,326.0,NaN,3.204,35.0,0.0,9 / 9,164530,2020-03-19 19:19:58:299
1.857901,-13.474567,-0.148441,0.0,49.83792,24.036646,326.0,NaN,3.204,35.0,0.0,9 / 9,165031,2020-03-19 19:19:58:800
-2.169147,1.278504,2.293645,0.0,49.83792,24.036646,326.0,NaN,3.204,35.0,0.0,9 / 9,165530,2020-03-19 19:19:59:299
-3.916914,-6.244078,0.052672,0.0,49.83792,24.036646,326.0,NaN,3.204,35.0,0.0,9 / 9,166031,2020-03-19 19:19:59:800
-1.49877,-9.591172,0.675165,0.0,49.83792,24.036646,326.0,NaN,3.204,35.0,0.0,9 / 9,166531,2020-03-19 19:20:00:300
-2.930503,-13.273455,22.902933,0.0,49.83792,24.036646,326.0,NaN,3.204,35.0,0.0,9 / 9,167031,2020-03-19 19:20:00:800
-4.141969,-9.92636,-1.197101,0.0,49.83792,24.036646,326.0,NaN,3.204,35.0,0.0,9 / 9,167531,2020-03-19 19:20:01:300
-6.785167,-18.229452,-10.601525,0.0,49.83792,24.036646,326.0,NaN,3.204,35.0,0.0,9 / 9,168031,2020-03-19 19:20:01:800
-1.929727,-14.767436,-3.476381,0.0,49.83792,24.036646,326.0,NaN,3.204,35.0,0.0,9 / 9,168531,2020-03-19 19:20:02:300
-0.54109,-4.477157,-6.981492,0.0,49.83792,24.036646,326.0,NaN,3.204,35.0,0.0,9 / 9,169031,2020-03-19 19:20:02:800
0.507571,-12.593501,-1.374272,0.0,49.83792,24.036646,326.0,NaN,3.204,35.0,0.0,9 / 9,169531,2020-03-19 19:20:03:300
-4.711789,-1.977611,2.470816,0.0,49.83792,24.036646,326.0,NaN,3.204,35.0,0.0,9 / 9,170031,2020-03-19 19:20:03:800
-1.244985,-7.383718,-0.158017,0.0,49.83792,24.036646,326.0,NaN,3.204,35.0,0.0,9 / 9,170531,2020-03-19 19:20:04:300
-2.173935,-10.783484,-0.014365,0.0,49.83792,24.036646,326.0,NaN,3.204,35.0,0.0,9 / 9,171030,2020-03-19 19:20:04:799
-2.336741,-7.465121,-0.531513,0.0,49.83792,24.036646,326.0,NaN,3.204,35.0,0.0,9 / 9,171530,2020-03-19 19:20:05:299
-3.701436,-10.309433,-0.181959,0.0,49.83792,24.036646,326.0,NaN,3.204,35.0,0.0,9 / 9,172030,2020-03-19 19:20:05:799
-4.185065,-19.804836,-7.910442,0.0,49.83792,24.036646,326.0,NaN,3.204,35.0,0.0,9 / 9,172530,2020-03-19 19:20:06:299
0.306458,-14.135366,-4.501099,0.0,49.83792,24.036646,326.0,NaN,3.204,35.0,0.0,9 / 9,173031,2020-03-19 19:20:06:800
-3.960009,-14.748282,-15.184027,0.0,49.83792,24.036646,326.0,NaN,3.204,35.0,0.0,9 / 9,173531,2020-03-19 19:20:07:300
-5.655104,-7.800309,-2.72939,0.0,49.83792,24.036646,326.0,NaN,3.204,35.0,0.0,9 / 9,174031,2020-03-19 19:20:07:800
-2.394202,0.009577,2.892196,0.0,49.83792,24.036646,326.0,NaN,3.204,35.0,0.0,9 / 9,174531,2020-03-19 19:20:08:300
-6.483498,-7.374141,0.110133,0.0,49.83792,24.036646,326.0,NaN,3.204,35.0,0.0,9 / 9,175031,2020-03-19 19:20:08:800
-10.596737,-13.484144,-1.182736,0.0,49.83792,24.036646,326.0,NaN,3.204,35.0,0.0,9 / 9,175531,2020-03-19 19:20:09:300
-12.157756,4.903325,-5.90889,0.0,49.83792,24.036646,326.0,NaN,3.204,35.0,0.0,9 / 9,176030,2020-03-19 19:20:09:799
-12.162544,-14.121001,0.871489,0.0,49.83792,24.036646,326.0,NaN,3.204,35.0,0.0,9 / 9,176530,2020-03-19 19:20:10:299
-13.723564,-26.187778,-15.049952,0.0,49.83792,24.036646,326.0,NaN,3.204,35.0,0.0,9 / 9,177031,2020-03-19 19:20:10:800
-3.126827,-11.382035,-1.613692,0.0,49.83792,24.036646,326.0,NaN,3.204,35.0,0.0,9 / 9,177530,2020-03-19 19:20:11:299
-3.035848,-6.550535,-5.377377,0.0,49.83792,24.036646,326.0,NaN,3.204,35.0,0.0,9 / 9,178030,2020-03-19 19:20:11:799
-1.216254,-8.12592,1.565808,0.0,49.83792,24.036646,326.0,NaN,3.204,35.0,0.0,9 / 9,178531,2020-03-19 19:20:12:300
1.010353,-7.225701,2.542642,0.0,49.83792,24.036646,326.0,NaN,3.204,35.0,0.0,9 / 9,179031,2020-03-19 19:20:12:800
-6.598419,-6.210559,0.823605,0.0,49.83792,24.036646,326.0,NaN,3.204,35.0,0.0,9 / 9,179531,2020-03-19 19:20:13:300
-13.532028,-14.571112,-0.555455,0.0,49.83792,24.036646,326.0,NaN,3.204,35.0,0.0,9 / 9,180031,2020-03-19 19:20:13:800
-2.652775,-1.608903,12.512098,0.0,49.83792,24.036646,326.0,NaN,3.204,35.0,0.0,9 / 9,180531,2020-03-19 19:20:14:300
-7.982268,-12.138602,-0.732626,0.0,49.83792,24.036646,326.0,NaN,3.204,35.0,0.0,9 / 9,181031,2020-03-19 19:20:14:800
0.512359,-8.437167,24.17186,0.0,49.83792,24.036646,326.0,NaN,3.204,35.0,0.0,9 / 9,181531,2020-03-19 19:20:15:300
-1.355118,-14.245501,-2.494758,0.0,49.83792,24.036646,326.0,NaN,3.204,35.0,0.0,9 / 9,182031,2020-03-19 19:20:15:800
-3.184288,-4.975151,-3.816357,0.0,49.83792,24.036646,326.0,NaN,3.204,35.0,0.0,9 / 9,182531,2020-03-19 19:20:16:300
-0.368707,-10.386047,-0.651223,0.0,49.83792,24.036646,326.0,NaN,3.204,35.0,0.0,9 / 9,183031,2020-03-19 19:20:16:800
-2.078167,-0.531513,2.39899,0.0,49.83792,24.036646,326.0,NaN,3.204,35.0,0.0,9 / 9,183531,2020-03-19 19:20:17:300
-4.941632,-7.551312,-1.149217,0.0,49.83792,24.036646,326.0,NaN,3.204,35.0,0.0,9 / 9,184031,2020-03-19 19:20:17:800
-7.714118,-11.654974,-0.742202,0.0,49.83792,24.036646,326.0,NaN,3.204,35.0,0.0,9 / 9,184531,2020-03-19 19:20:18:300
-4.975151,-21.538239,-7.354987,0.0,49.83792,24.036646,326.0,NaN,3.204,35.0,0.0,9 / 9,185031,2020-03-19 19:20:18:800
3.308787,-9.069236,0.129287,0.0,49.83792,24.036646,326.0,NaN,3.204,35.0,0.0,9 / 9,185530,2020-03-19 19:20:19:299
-0.378284,-9.797073,-0.234632,0.0,49.83792,24.036646,326.0,NaN,3.204,35.0,0.0,9 / 9,186031,2020-03-19 19:20:19:800
-13.393165,-13.397953,-0.531513,0.0,49.83792,24.036646,326.0,NaN,3.204,35.0,0.0,9 / 9,186531,2020-03-19 19:20:20:300
-0.703895,10.070012,15.610195,0.0,49.83792,24.036646,326.0,NaN,3.204,35.0,0.0,9 / 9,187031,2020-03-19 19:20:20:800
-3.098097,-12.837709,-4.903325,0.0,49.83792,24.036646,326.0,NaN,3.204,35.0,0.0,9 / 9,187531,2020-03-19 19:20:21:300
-13.575124,-19.144037,-21.078552,0.0,49.83792,24.036646,326.0,NaN,3.204,35.0,0.0,9 / 9,188031,2020-03-19 19:20:21:800
-5.449203,-7.948749,-3.1795,0.0,49.83792,24.036646,326.0,NaN,3.204,35.0,0.0,9 / 9,188531,2020-03-19 19:20:22:300
-3.122039,-2.552219,3.227384,0.0,49.83792,24.036646,326.0,NaN,3.204,35.0,0.0,9 / 9,189031,2020-03-19 19:20:22:800
-1.182736,-9.380483,-1.082179,0.0,49.83792,24.036646,326.0,NaN,3.204,35.0,0.0,9 / 9,189531,2020-03-19 19:20:23:300
-2.149993,0.205901,3.356671,0.0,49.83792,24.036646,326.0,NaN,3.204,35.0,0.0,9 / 9,190031,2020-03-19 19:20:23:800
-3.002329,-8.623915,-1.120486,0.0,49.83792,24.036646,326.0,NaN,3.204,35.0,0.0,9 / 9,190531,2020-03-19 19:20:24:300
-2.528277,-11.133038,-2.801216,0.0,49.83792,24.036646,326.0,NaN,3.204,35.0,0.0,9 / 9,191031,2020-03-19 19:20:24:800
-0.842759,-18.387468,4.716578,0.0,49.83792,24.036646,326.0,NaN,3.204,35.0,0.0,9 / 9,191531,2020-03-19 19:20:25:300
-4.855441,-13.848063,-2.145205,0.0,49.83792,24.036646,326.0,NaN,3.204,35.0,0.0,9 / 9,192031,2020-03-19 19:20:25:800
-3.303998,-13.536817,-2.360683,0.0,49.83792,24.036646,326.0,NaN,3.204,35.0,0.0,9 / 9,192531,2020-03-19 19:20:26:300
-3.32794,-12.713211,-2.106897,0.0,49.83792,24.036646,326.0,NaN,3.204,35.0,0.0,9 / 9,193031,2020-03-19 19:20:26:800
-11.745954,-16.82645,-12.047623,0.0,49.83792,24.036646,326.0,NaN,3.204,35.0,0.0,9 / 9,193531,2020-03-19 19:20:27:300
-3.643975,-13.081918,-2.748543,0.0,49.83792,24.036646,326.0,NaN,3.204,35.0,0.0,9 / 9,194031,2020-03-19 19:20:27:800
-11.563994,-15.121778,-14.015656,0.0,49.83792,24.036646,326.0,NaN,3.204,35.0,0.0,9 / 9,194531,2020-03-19 19:20:28:300
-7.417237,-7.086837,-4.807557,0.0,49.83792,24.036646,326.0,NaN,3.204,35.0,0.0,0 / 0,195030,2020-03-19 19:20:28:799
-1.915361,-1.283292,3.050213,0.0,49.83792,24.036646,326.0,NaN,3.204,35.0,0.0,0 / 0,195531,2020-03-19 19:20:29:300
-4.572925,-7.905654,-0.766144,0.0,49.83792,24.036646,326.0,NaN,3.204,35.0,0.0,0 / 3,196030,2020-03-19 19:20:29:799
-3.730166,-11.765107,-1.719037,0.0,49.83792,24.036646,326.0,NaN,3.204,35.0,0.0,0 / 3,196530,2020-03-19 19:20:30:299
-2.03986,-9.931149,24.49747,0.0,49.83792,24.036646,326.0,NaN,3.204,35.0,0.0,0 / 4,197030,2020-03-19 19:20:30:799
0.770933,-14.077906,-4.156334,0.0,49.83792,24.036646,326.0,NaN,3.204,35.0,0.0,0 / 4,197530,2020-03-19 19:20:31:299
1.896208,-4.367024,22.835896,0.0,49.83792,24.036646,326.0,NaN,3.204,35.0,0.0,0 / 12,198030,2020-03-19 19:20:31:799
-4.778826,-15.102624,-3.385401,0.0,49.83792,24.036646,326.0,NaN,3.204,35.0,0.0,0 / 12,198531,2020-03-19 19:20:32:300
-1.154005,-3.227384,-2.63841,0.0,49.837948,24.035328,338.0,NaN,4.896,31.500002,326.3,10 / 13,199031,2020-03-19 19:20:32:800
0.579397,-12.50731,-1.446098,0.0,49.837948,24.035328,338.0,NaN,4.896,31.500002,326.3,10 / 13,199531,2020-03-19 19:20:33:300
-2.475604,-0.636858,1.699883,0.0,49.837948,24.035328,338.0,NaN,4.896,31.500002,326.3,10 / 13,200031,2020-03-19 19:20:33:800
-1.47004,-8.264784,1.695095,0.0,49.837948,24.035328,338.0,NaN,4.896,31.500002,326.3,10 / 13,200531,2020-03-19 19:20:34:300
-1.996764,-1.628057,3.198654,0.0,49.837948,24.035328,338.0,NaN,4.896,31.500002,326.3,10 / 13,201031,2020-03-19 19:20:34:800
-5.482722,-7.934384,-0.052672,0.0,49.837948,24.035328,338.0,NaN,4.896,31.500002,326.3,10 / 13,201531,2020-03-19 19:20:35:300
-9.188946,-13.024457,-1.881842,0.0,49.837948,24.035328,338.0,NaN,4.896,31.500002,326.3,10 / 13,202031,2020-03-19 19:20:35:800
-9.380483,-0.407014,-17.00841,0.0,49.837948,24.035328,338.0,NaN,4.896,31.500002,326.3,10 / 13,202531,2020-03-19 19:20:36:300
-1.010353,-13.809755,-3.926491,0.0,49.837948,24.035328,338.0,NaN,4.896,31.500002,326.3,10 / 13,203030,2020-03-19 19:20:36:799
-2.935291,-13.589489,-14.255077,0.0,49.837948,24.035328,338.0,NaN,4.896,31.500002,326.3,10 / 13,203530,2020-03-19 19:20:37:299
-1.23062,-14.681245,-3.045424,0.0,49.837948,24.035328,338.0,NaN,4.896,31.500002,326.3,10 / 13,204030,2020-03-19 19:20:37:799
-5.214571,-10.342952,-7.52737,0.0,49.837948,24.035328,338.0,NaN,4.896,31.500002,326.3,10 / 13,204531,2020-03-19 19:20:38:300
-5.00867,-7.972691,-2.097321,0.0,49.837948,24.035328,338.0,NaN,4.896,31.500002,326.3,10 / 13,205031,2020-03-19 19:20:38:800
-2.75812,-1.805228,1.23062,0.0,49.837948,24.035328,338.0,NaN,4.896,31.500002,326.3,10 / 13,205531,2020-03-19 19:20:39:300
-2.236184,-9.749189,-1.719037,0.0,49.837948,24.035328,338.0,NaN,4.896,31.500002,326.3,10 / 13,206031,2020-03-19 19:20:39:800
-2.580949,-9.983821,-1.929727,0.0,49.837948,24.035328,338.0,NaN,4.896,31.500002,326.3,10 / 13,206531,2020-03-19 19:20:40:300
-3.730166,-14.508862,8.355765,0.0,49.837948,24.035328,338.0,NaN,4.896,31.500002,326.3,10 / 13,207031,2020-03-19 19:20:40:800
-2.566584,-12.583924,-5.583278,0.0,49.837948,24.035328,338.0,NaN,4.896,31.500002,326.3,10 / 13,207531,2020-03-19 19:20:41:300
3.174712,-4.903325,-1.388637,0.0,49.837948,24.035328,338.0,NaN,4.896,31.500002,326.3,10 / 13,208031,2020-03-19 19:20:41:800
-9.892841,-10.91756,1.015142,0.0,49.837948,24.035328,338.0,NaN,4.896,31.500002,326.3,10 / 13,208531,2020-03-19 19:20:42:300
6.737284,-12.650962,4.165911,0.0,49.837948,24.035328,338.0,NaN,4.896,31.500002,326.3,10 / 13,209031,2020-03-19 19:20:42:800
0.483629,-15.86398,-2.810793,0.0,49.837948,24.035328,338.0,NaN,4.896,31.500002,326.3,10 / 13,209530,2020-03-19 19:20:43:299
-2.576161,-14.283808,-7.249643,0.0,49.837948,24.035328,338.0,NaN,4.896,31.500002,326.3,10 / 13,210030,2020-03-19 19:20:43:799
-1.944092,-9.232041,-0.11971,0.0,49.837948,24.035328,338.0,NaN,4.896,31.500002,326.3,10 / 13,210531,2020-03-19 19:20:44:300
-0.6608,-2.715025,-2.15957,0.0,49.837948,24.035328,338.0,NaN,4.896,31.500002,326.3,10 / 13,211031,2020-03-19 19:20:44:800
-0.555455,-8.178592,-0.641646,0.0,49.837948,24.035328,338.0,NaN,4.896,31.500002,326.3,10 / 13,211531,2020-03-19 19:20:45:300
-4.754884,-11.453861,-0.646434,0.0,49.837948,24.035328,338.0,NaN,4.896,31.500002,326.3,10 / 13,212030,2020-03-19 19:20:45:799
-6.047753,-7.402871,10.022128,0.0,49.837948,24.035328,338.0,NaN,4.896,31.500002,326.3,10 / 13,212530,2020-03-19 19:20:46:299
-5.702988,-12.052411,-1.130063,0.0,49.837948,24.035328,338.0,NaN,4.896,31.500002,326.3,10 / 13,213031,2020-03-19 19:20:46:800
1.82917,-10.266336,18.698715,0.0,49.837948,24.035328,338.0,NaN,4.896,31.500002,326.3,10 / 13,213531,2020-03-19 19:20:47:300
-1.11091,-15.275007,-2.102109,0.0,49.837948,24.035328,338.0,NaN,4.896,31.500002,326.3,10 / 13,214030,2020-03-19 19:20:47:799
-5.056554,-11.473015,-12.607866,0.0,49.837948,24.035328,338.0,NaN,4.896,31.500002,326.3,10 / 13,214531,2020-03-19 19:20:48:300
1.082179,-9.940725,-0.316035,0.0,49.837948,24.035328,338.0,NaN,4.896,31.500002,326.3,10 / 13,215031,2020-03-19 19:20:48:800
-2.432509,-1.288081,3.203442,0.0,49.837948,24.035328,338.0,NaN,4.896,31.500002,326.3,10 / 13,215531,2020-03-19 19:20:49:300
0.263362,-7.661445,0.105345,0.0,49.837948,24.035328,338.0,NaN,4.896,31.500002,326.3,10 / 13,216031,2020-03-19 19:20:49:800
-0.536301,-2.092532,2.896984,0.0,49.837948,24.035328,338.0,NaN,4.896,31.500002,326.3,10 / 13,216531,2020-03-19 19:20:50:300
-3.236961,-6.751649,-0.244209,0.0,49.837948,24.035328,338.0,NaN,4.896,31.500002,326.3,10 / 13,217030,2020-03-19 19:20:50:799
-6.919243,-11.774684,-0.799663,0.0,49.837948,24.035328,338.0,NaN,4.896,31.500002,326.3,10 / 13,217531,2020-03-19 19:20:51:300
-7.19697,-5.693412,2.202666,0.0,49.837948,24.035328,338.0,NaN,4.896,31.500002,326.3,10 / 13,218031,2020-03-19 19:20:51:800
-9.844957,-11.971008,-1.561019,0.0,49.837948,24.035328,338.0,NaN,4.896,31.500002,326.3,10 / 13,218530,2020-03-19 19:20:52:299
0.349553,-12.703634,14.920665,0.0,49.837948,24.035328,338.0,NaN,4.896,31.500002,326.3,10 / 13,219031,2020-03-19 19:20:52:800
-3.701436,-14.437037,-3.701436,0.0,49.837948,24.035328,338.0,NaN,4.896,31.500002,326.3,10 / 13,219530,2020-03-19 19:20:53:299
-8.159439,-6.038176,-2.992752,0.0,49.837948,24.035328,338.0,NaN,4.896,31.500002,326.3,10 / 13,220030,2020-03-19 19:20:53:799
1.221043,-12.617443,1.01993,0.0,49.837948,24.035328,338.0,NaN,4.896,31.500002,326.3,10 / 13,220531,2020-03-19 19:20:54:300
-2.221819,-0.344765,2.236184,0.0,49.837948,24.035328,338.0,NaN,4.896,31.500002,326.3,10 / 13,221031,2020-03-19 19:20:54:800
-1.149217,-7.867347,-0.756568,0.0,49.837948,24.035328,338.0,NaN,4.896,31.500002,326.3,10 / 13,221531,2020-03-19 19:20:55:300
1.197101,-10.960655,-1.599327,0.0,49.837948,24.035328,338.0,NaN,4.896,31.500002,326.3,10 / 13,222031,2020-03-19 19:20:55:800
-2.37026,-17.477673,-2.624045,0.0,49.837948,24.035328,338.0,NaN,4.896,31.500002,326.3,10 / 13,222531,2020-03-19 19:20:56:300
1.240197,-11.161768,-0.857124,0.0,49.837948,24.035328,338.0,NaN,4.896,31.500002,326.3,10 / 13,223031,2020-03-19 19:20:56:800
-5.090072,-19.632454,-3.32794,0.0,49.837948,24.035328,338.0,NaN,4.896,31.500002,326.3,10 / 13,223531,2020-03-19 19:20:57:300
-5.96635,-13.421895,-1.13964,0.0,49.837948,24.035328,338.0,NaN,4.896,31.500002,326.3,10 / 13,224031,2020-03-19 19:20:57:800
-0.794875,-2.121263,-5.995081,0.0,49.837948,24.035328,338.0,NaN,4.896,31.500002,326.3,10 / 13,224531,2020-03-19 19:20:58:300
-1.810016,-11.664551,-2.260126,0.0,49.837948,24.035328,338.0,NaN,4.896,31.500002,326.3,10 / 13,225030,2020-03-19 19:20:58:799
-3.926491,-4.118027,-2.499546,0.0,49.837948,24.035328,338.0,NaN,4.896,31.500002,326.3,10 / 13,225531,2020-03-19 19:20:59:300
-2.322375,-7.982268,1.316811,0.0,49.837948,24.035328,338.0,NaN,4.896,31.500002,326.3,10 / 13,226031,2020-03-19 19:20:59:800
0.430956,-7.781155,2.906561,0.0,49.837948,24.035328,338.0,NaN,4.896,31.500002,326.3,10 / 13,226531,2020-03-19 19:21:00:300
-2.403778,-7.283161,0.742203,0.0,49.837948,24.035328,338.0,NaN,4.896,31.500002,326.3,10 / 13,227031,2020-03-19 19:21:00:800
-1.106121,-2.892196,2.671929,0.0,49.837948,24.035328,338.0,NaN,4.896,31.500002,326.3,10 / 13,227531,2020-03-19 19:21:01:300
-6.229713,-6.976703,0.948104,0.0,49.837948,24.035328,338.0,NaN,4.896,31.500002,326.3,10 / 13,228031,2020-03-19 19:21:01:800
-13.962984,-14.360422,-0.526724,0.0,49.837948,24.035328,338.0,NaN,4.896,31.500002,326.3,10 / 13,228531,2020-03-19 19:21:02:300
-0.282516,-3.524265,27.135881,0.0,49.837948,24.035328,338.0,NaN,4.896,31.500002,326.3,10 / 13,229030,2020-03-19 19:21:02:799
-4.711789,-15.337256,-3.280056,0.0,49.837948,24.035328,338.0,NaN,4.896,31.500002,326.3,10 / 13,229530,2020-03-19 19:21:03:299
-6.41646,-4.850652,-3.883395,0.0,49.837948,24.035328,338.0,NaN,4.896,31.500002,326.3,10 / 13,230031,2020-03-19 19:21:03:800
-2.767697,-11.324574,-1.273715,0.0,49.837948,24.035328,338.0,NaN,4.896,31.500002,326.3,10 / 13,230531,2020-03-19 19:21:04:300
-3.318364,-3.864241,-3.557784,0.0,49.837948,24.035328,338.0,NaN,4.896,31.500002,326.3,10 / 13,231031,2020-03-19 19:21:04:800
-2.207454,-8.298302,1.824382,0.0,49.837948,24.035328,338.0,NaN,4.896,31.500002,326.3,10 / 13,231531,2020-03-19 19:21:05:300
0.584185,1.134852,1.273715,0.0,49.837948,24.035328,338.0,NaN,4.896,31.500002,326.3,10 / 13,232031,2020-03-19 19:21:05:800
-2.245761,-7.393295,1.043872,0.0,49.837948,24.035328,338.0,NaN,4.896,31.500002,326.3,10 / 13,232531,2020-03-19 19:21:06:300
-0.799663,-3.878607,2.863465,0.0,49.837948,24.035328,338.0,NaN,4.896,31.500002,326.3,10 / 13,233031,2020-03-19 19:21:06:800
-2.442086,-8.403648,2.178724,0.0,49.837948,24.035328,338.0,NaN,4.896,31.500002,326.3,10 / 13,233531,2020-03-19 19:21:07:300
-10.568007,-13.172897,-2.513912,0.0,49.837948,24.035328,338.0,NaN,4.896,31.500002,326.3,10 / 13,234031,2020-03-19 19:21:07:800
-8.255207,-0.177171,-2.896984,0.0,49.837948,24.035328,338.0,NaN,4.896,31.500002,326.3,10 / 13,234531,2020-03-19 19:21:08:300
-2.647987,-12.636597,-3.672705,0.0,49.837948,24.035328,338.0,NaN,4.896,31.500002,326.3,10 / 13,235030,2020-03-19 19:21:08:799
-7.85777,-16.845604,-18.425776,0.0,49.837948,24.035328,338.0,NaN,4.896,31.500002,326.3,10 / 13,235531,2020-03-19 19:21:09:300
3.141193,-11.386824,-1.422156,0.0,49.837948,24.035328,338.0,NaN,4.896,31.500002,326.3,10 / 13,236031,2020-03-19 19:21:09:800
-2.552219,-1.187524,3.466804,0.0,49.837948,24.035328,338.0,NaN,4.896,31.500002,326.3,10 / 13,236531,2020-03-19 19:21:10:300
-2.030283,-7.254431,-0.02873,0.0,49.837948,24.035328,338.0,NaN,4.896,31.500002,326.3,10 / 13,237031,2020-03-19 19:21:10:800
-2.657564,0.430956,2.892196,0.0,49.837948,24.035328,338.0,NaN,4.896,31.500002,326.3,10 / 13,237530,2020-03-19 19:21:11:299
-3.811569,-6.722918,-1.637634,0.0,49.837948,24.035328,338.0,NaN,4.896,31.500002,326.3,10 / 13,238030,2020-03-19 19:21:11:799
-0.464475,-10.721235,-0.895431,0.0,49.837948,24.035328,338.0,NaN,4.896,31.500002,326.3,10 / 13,238530,2020-03-19 19:21:12:299
-5.827487,-13.512875,3.447651,0.0,49.837948,24.035328,338.0,NaN,4.896,31.500002,326.3,10 / 13,239030,2020-03-19 19:21:12:799
-3.509899,-17.070658,-1.934515,0.0,49.837948,24.035328,338.0,NaN,4.896,31.500002,326.3,10 / 13,239530,2020-03-19 19:21:13:299
-4.434061,-6.004657,-3.543418,0.0,49.837948,24.035328,338.0,NaN,4.896,31.500002,326.3,10 / 13,240031,2020-03-19 19:21:13:800
0.354342,-12.789825,-1.053449,0.0,49.837948,24.035328,338.0,NaN,4.896,31.500002,326.3,10 / 13,240530,2020-03-19 19:21:14:299
-3.32794,-0.435745,3.093309,0.0,49.837948,24.035328,338.0,NaN,4.896,31.500002,326.3,10 / 13,241030,2020-03-19 19:21:14:799
2.149993,-13.388376,-2.37026,0.0,49.837948,24.035328,338.0,NaN,4.896,31.500002,326.3,10 / 13,241530,2020-03-19 19:21:15:299
-2.504335,-1.072602,1.024718,0.0,49.837948,24.035328,338.0,NaN,4.896,31.500002,326.3,10 / 13,242030,2020-03-19 19:21:15:799
-2.777274,-7.244854,-0.397437,0.0,49.837948,24.035328,338.0,NaN,4.896,31.500002,326.3,10 / 13,242530,2020-03-19 19:21:16:299
-0.804452,-6.196194,2.547431,0.0,49.837948,24.035328,338.0,NaN,4.896,31.500002,326.3,10 / 13,243030,2020-03-19 19:21:16:799
-1.244985,-12.339716,1.881843,0.0,49.837948,24.035328,338.0,NaN,4.896,31.500002,326.3,10 / 13,243530,2020-03-19 19:21:17:299
-12.89517,-13.129802,5.564125,0.0,49.837948,24.035328,338.0,NaN,4.896,31.500002,326.3,10 / 13,244030,2020-03-19 19:21:17:799
-10.611102,-22.874203,-14.049175,0.0,49.837948,24.035328,338.0,NaN,4.896,31.500002,326.3,10 / 13,244530,2020-03-19 19:21:18:299
-2.317587,-10.955867,-1.489193,0.0,49.837948,24.035328,338.0,NaN,4.896,31.500002,326.3,10 / 13,245031,2020-03-19 19:21:18:800
-2.245761,-7.024587,-7.177817,0.0,49.837948,24.035328,338.0,NaN,4.896,31.500002,326.3,10 / 13,245530,2020-03-19 19:21:19:299
-0.47884,-12.162544,-1.484405,0.0,49.837948,24.035328,338.0,NaN,4.896,31.500002,326.3,10 / 13,246030,2020-03-19 19:21:19:799
-0.215478,-1.326388,0.617704,0.0,49.837948,24.035328,338.0,NaN,4.896,31.500002,326.3,10 / 13,246530,2020-03-19 19:21:20:299
-1.537077,-8.461109,0.100556,0.0,49.837948,24.035328,338.0,NaN,4.896,31.500002,326.3,10 / 13,247031,2020-03-19 19:21:20:800
2.121263,-8.48984,1.283292,0.0,49.837948,24.035328,338.0,NaN,4.896,31.500002,326.3,10 / 13,247530,2020-03-19 19:21:21:299
-4.122815,-7.728483,1.546654,0.0,49.837948,24.035328,338.0,NaN,4.896,31.500002,326.3,0 / 0,248030,2020-03-19 19:21:21:799
-11.439496,-15.030798,6.354212,0.0,49.837948,24.035328,338.0,NaN,4.896,31.500002,326.3,0 / 0,248531,2020-03-19 19:21:22:300
-9.208099,-20.561403,3.979163,0.0,49.837948,24.035328,338.0,NaN,4.896,31.500002,326.3,0 / 2,249031,2020-03-19 19:21:22:800
-4.34787,-12.320562,-3.481169,0.0,49.837948,24.035328,338.0,NaN,4.896,31.500002,326.3,0 / 2,249530,2020-03-19 19:21:23:299
1.977611,-1.580173,15.801731,0.0,49.837948,24.035328,338.0,NaN,4.896,31.500002,326.3,0 / 2,250031,2020-03-19 19:21:23:800
-4.520252,-12.330139,-3.77805,0.0,49.837948,24.035328,338.0,NaN,4.896,31.500002,326.3,0 / 2,250530,2020-03-19 19:21:24:299
-4.692635,-10.630256,-15.691598,0.0,49.837948,24.035328,338.0,NaN,4.896,31.500002,326.3,0 / 6,251030,2020-03-19 19:21:24:799
-3.864241,-7.690176,-1.94888,0.0,49.837948,24.035328,338.0,NaN,4.896,31.500002,326.3,0 / 6,251530,2020-03-19 19:21:25:299
-0.59855,-0.632069,3.864242,0.0,49.837948,24.035328,338.0,NaN,4.896,31.500002,326.3,0 / 13,252030,2020-03-19 19:21:25:799
-3.552995,-7.062895,-0.287304,0.0,49.837948,24.035328,338.0,NaN,4.896,31.500002,326.3,0 / 13,252530,2020-03-19 19:21:26:299
-2.446874,-11.166556,-2.351106,0.0,49.83741,24.035042,384.0,NaN,0.936,8.5,0.0,18 / 19,253031,2020-03-19 19:21:26:800
-4.783615,-17.492037,-5.228936,0.0,49.83741,24.035042,384.0,NaN,0.936,8.5,0.0,18 / 19,253531,2020-03-19 19:21:27:300
-7.991845,-12.157756,-1.091756,0.0,49.83741,24.035042,384.0,NaN,0.936,8.5,0.0,18 / 19,254031,2020-03-19 19:21:27:800
-10.333375,-13.263878,-2.87783,0.0,49.83741,24.035042,384.0,NaN,0.936,8.5,0.0,18 / 19,254531,2020-03-19 19:21:28:300
-5.63595,-13.302185,8.532935,0.0,49.83741,24.035042,384.0,NaN,0.936,8.5,0.0,18 / 19,255031,2020-03-19 19:21:28:800
-11.889606,-23.300371,-8.264784,0.0,49.83741,24.035042,384.0,NaN,0.936,8.5,0.0,18 / 19,255531,2020-03-19 19:21:29:300
-3.462016,-12.962208,-1.278504,0.0,49.83741,24.035042,384.0,NaN,0.936,8.5,0.0,18 / 19,256031,2020-03-19 19:21:29:800
-3.251326,-14.082694,-14.06354,0.0,49.83741,24.035042,384.0,NaN,0.936,8.5,0.0,18 / 19,256531,2020-03-19 19:21:30:300
-2.676717,-5.717354,-0.411803,0.0,49.83741,24.035042,384.0,NaN,0.936,8.5,0.0,18 / 19,257031,2020-03-19 19:21:30:800
-1.92015,-0.876278,4.893749,0.0,49.83741,24.035042,384.0,NaN,0.936,8.5,0.0,18 / 19,257531,2020-03-19 19:21:31:300
-7.422025,-5.171476,-2.375048,0.0,49.83741,24.035042,384.0,NaN,0.936,8.5,0.0,18 / 19,258031,2020-03-19 19:21:31:800
-6.95755,-9.883265,0.148441,0.0,49.83741,24.035042,384.0,NaN,0.936,8.5,0.0,18 / 19,258531,2020-03-19 19:21:32:300
-0.469264,-19.04827,-4.089296,0.0,49.83741,24.035042,384.0,NaN,0.936,8.5,0.0,18 / 19,259031,2020-03-19 19:21:32:800
-8.437167,-11.109096,0.593762,0.0,49.83741,24.035042,384.0,NaN,0.936,8.5,0.0,18 / 19,259530,2020-03-19 19:21:33:299
7.580043,-4.630386,31.986534,0.0,49.83741,24.035042,384.0,NaN,0.936,8.5,0.0,18 / 19,260031,2020-03-19 19:21:33:800
-4.22816,-16.965311,-1.297657,0.0,49.83741,24.035042,384.0,NaN,0.936,8.5,0.0,18 / 19,260531,2020-03-19 19:21:34:300
-0.162806,-5.439626,-4.807557,0.0,49.83741,24.035042,384.0,NaN,0.936,8.5,0.0,18 / 19,261031,2020-03-19 19:21:34:800
-3.758896,-10.840945,-2.930503,0.0,49.83741,24.035042,384.0,NaN,0.936,8.5,0.0,18 / 19,261531,2020-03-19 19:21:35:300
-1.900996,-2.772485,-1.972822,0.0,49.83741,24.035042,384.0,NaN,0.936,8.5,0.0,18 / 19,262031,2020-03-19 19:21:35:800
-2.202665,-7.987056,0.263362,0.0,49.83741,24.035042,384.0,NaN,0.936,8.5,0.0,18 / 19,262531,2020-03-19 19:21:36:300
-1.517924,-5.214571,1.034295,0.0,49.83741,24.035042,384.0,NaN,0.936,8.5,0.0,18 / 19,263031,2020-03-19 19:21:36:800
-3.677494,-8.724471,2.973599,0.0,49.83741,24.035042,384.0,NaN,0.936,8.5,0.0,18 / 19,263531,2020-03-19 19:21:37:300
-10.989386,-13.584701,4.917691,0.0,49.83741,24.035042,384.0,NaN,0.936,8.5,0.0,18 / 19,264031,2020-03-19 19:21:37:800
-3.457227,-7.522581,-0.584185,0.0,49.83741,24.035042,384.0,NaN,0.936,8.5,0.0,18 / 19,264531,2020-03-19 19:21:38:300
-2.025495,-10.002975,-1.584961,0.0,49.83741,24.035042,384.0,NaN,0.936,8.5,0.0,18 / 19,265031,2020-03-19 19:21:38:800
-3.830723,-3.806781,-1.16837,0.0,49.83741,24.035042,384.0,NaN,0.936,8.5,0.0,18 / 19,265531,2020-03-19 19:21:39:300
-5.018246,-9.524135,2.58095,0.0,49.83741,24.035042,384.0,NaN,0.936,8.5,0.0,18 / 19,266031,2020-03-19 19:21:39:800
-14.164097,-12.928689,1.810017,0.0,49.83741,24.035042,384.0,NaN,0.936,8.5,0.0,18 / 19,266531,2020-03-19 19:21:40:300
-2.585738,0.536301,5.511452,0.0,49.83741,24.035042,384.0,NaN,0.936,8.5,0.0,18 / 19,267031,2020-03-19 19:21:40:800
-0.823605,-10.491392,0.100556,0.0,49.83741,24.035042,384.0,NaN,0.936,8.5,0.0,18 / 19,267531,2020-03-19 19:21:41:300
-2.461239,-3.936067,-3.902549,0.0,49.83741,24.035042,384.0,NaN,0.936,8.5,0.0,18 / 19,268030,2020-03-19 19:21:41:799
-4.367024,-8.250418,-1.80044,0.0,49.83741,24.035042,384.0,NaN,0.936,8.5,0.0,18 / 19,268530,2020-03-19 19:21:42:299
-7.776367,-10.874464,0.718261,0.0,49.83741,24.035042,384.0,NaN,0.936,8.5,0.0,18 / 19,269030,2020-03-19 19:21:42:799
-5.027823,-7.450755,-0.981623,0.0,49.83741,24.035042,384.0,NaN,0.936,8.5,0.0,18 / 19,269530,2020-03-19 19:21:43:299
-0.56982,-13.220781,-5.626374,0.0,49.83741,24.035042,384.0,NaN,0.936,8.5,0.0,18 / 19,270030,2020-03-19 19:21:43:799
-8.140285,-11.860875,-4.539406,0.0,49.83741,24.035042,384.0,NaN,0.936,8.5,0.0,18 / 19,270530,2020-03-19 19:21:44:299
-8.418014,-15.811308,-5.013458,0.0,49.83741,24.035042,384.0,NaN,0.936,8.5,0.0,18 / 19,271030,2020-03-19 19:21:44:799
-14.346057,-13.153744,-9.998186,0.0,49.83741,24.035042,384.0,NaN,0.936,8.5,0.0,18 / 19,271530,2020-03-19 19:21:45:299
-2.078167,-12.756307,-0.387861,0.0,49.83741,24.035042,384.0,NaN,0.936,8.5,0.0,18 / 19,272030,2020-03-19 19:21:45:799
-7.369353,-10.802638,-11.774684,0.0,49.83741,24.035042,384.0,NaN,0.936,8.5,0.0,18 / 19,272531,2020-03-19 19:21:46:300
-3.821146,-10.026917,-3.816357,0.0,49.83741,24.035042,384.0,NaN,0.936,8.5,0.0,18 / 19,273030,2020-03-19 19:21:46:799
-1.814805,-1.49877,3.801993,0.0,49.83741,24.035042,384.0,NaN,0.936,8.5,0.0,18 / 19,273530,2020-03-19 19:21:47:299
-5.865794,-5.851429,-1.40779,0.0,49.83741,24.035042,384.0,NaN,0.936,8.5,0.0,18 / 19,274030,2020-03-19 19:21:47:799
-4.936844,-11.401189,-0.933739,0.0,49.83741,24.035042,384.0,NaN,0.936,8.5,0.0,18 / 19,274530,2020-03-19 19:21:48:299
1.656788,-8.336611,25.656265,0.0,49.83741,24.035042,384.0,NaN,0.936,8.5,0.0,18 / 19,275030,2020-03-19 19:21:48:799
-5.66947,-13.977349,-1.522712,0.0,49.83741,24.035042,384.0,NaN,0.936,8.5,0.0,18 / 19,275530,2020-03-19 19:21:49:299
-5.956774,-6.708553,-7.967903,0.0,49.83741,24.035042,384.0,NaN,0.936,8.5,0.0,18 / 19,276030,2020-03-19 19:21:49:799
-10.687716,-13.22557,6.986281,0.0,49.83741,24.035042,384.0,NaN,0.936,8.5,0.0,18 / 19,276530,2020-03-19 19:21:50:299
3.754108,3.907337,14.489709,0.0,49.83741,24.035042,384.0,NaN,0.936,8.5,0.0,18 / 19,277030,2020-03-19 19:21:50:799
-3.366248,-13.690045,-2.762909,0.0,49.83741,24.035042,384.0,NaN,0.936,8.5,0.0,18 / 19,277531,2020-03-19 19:21:51:300
-16.261417,-19.713858,-24.119188,0.0,49.83741,24.035042,384.0,NaN,0.936,8.5,0.0,18 / 19,278031,2020-03-19 19:21:51:800
-4.094085,-9.916783,-2.451662,0.0,49.83741,24.035042,384.0,NaN,0.936,8.5,0.0,18 / 19,278531,2020-03-19 19:21:52:300
-0.78051,1.733402,2.743755,0.0,49.83741,24.035042,384.0,NaN,0.936,8.5,0.0,18 / 19,279031,2020-03-19 19:21:52:800
-6.435614,-5.870582,-0.071826,0.0,49.83741,24.035042,384.0,NaN,0.936,8.5,0.0,18 / 19,279531,2020-03-19 19:21:53:300
-2.681506,-10.869676,-1.034295,0.0,49.83741,24.035042,384.0,NaN,0.936,8.5,0.0,18 / 19,280031,2020-03-19 19:21:53:800
-3.600879,-19.761742,4.501099,0.0,49.83741,24.035042,384.0,NaN,0.936,8.5,0.0,18 / 19,280530,2020-03-19 19:21:54:299
-3.093309,-17.870321,-0.550666,0.0,49.83741,24.035042,384.0,NaN,0.936,8.5,0.0,18 / 19,281031,2020-03-19 19:21:54:800
-4.367024,-17.525557,-3.797204,0.0,49.83741,24.035042,384.0,NaN,0.936,8.5,0.0,18 / 19,281530,2020-03-19 19:21:55:299
-7.479486,-13.814544,3.39019,0.0,49.83741,24.035042,384.0,NaN,0.936,8.5,0.0,18 / 19,282030,2020-03-19 19:21:55:799
-10.204087,-17.00841,-12.018892,0.0,49.83741,24.035042,384.0,NaN,0.936,8.5,0.0,18 / 19,282530,2020-03-19 19:21:56:299
-0.397437,-12.20564,0.579397,0.0,49.83741,24.035042,384.0,NaN,0.936,8.5,0.0,18 / 19,283030,2020-03-19 19:21:56:799
-8.422802,-11.554418,-13.345281,0.0,49.83741,24.035042,384.0,NaN,0.936,8.5,0.0,18 / 19,283530,2020-03-19 19:21:57:299
-5.200206,-7.489063,-3.002329,0.0,49.83741,24.035042,384.0,NaN,0.936,8.5,0.0,18 / 19,284031,2020-03-19 19:21:57:800
-1.072602,-2.173935,3.433285,0.0,49.83741,24.035042,384.0,NaN,0.936,8.5,0.0,18 / 19,284531,2020-03-19 19:21:58:300
-5.209783,-7.058106,0.153229,0.0,49.83741,24.035042,384.0,NaN,0.936,8.5,0.0,18 / 19,285031,2020-03-19 19:21:58:800
-3.112462,-1.288081,3.821146,0.0,49.83741,24.035042,384.0,NaN,0.936,8.5,0.0,18 / 19,285531,2020-03-19 19:21:59:300
-5.363012,-9.155427,0.727837,0.0,49.83741,24.035042,384.0,NaN,0.936,8.5,0.0,18 / 19,286031,2020-03-19 19:21:59:800
-9.595961,-10.903194,-3.514688,0.0,49.83741,24.035042,384.0,NaN,0.936,8.5,0.0,18 / 19,286531,2020-03-19 19:22:00:300
-1.321599,-2.284068,-10.639832,0.0,49.83741,24.035042,384.0,NaN,0.936,8.5,0.0,18 / 19,287031,2020-03-19 19:22:00:800
-5.051765,-13.129802,-9.380483,0.0,49.83741,24.035042,384.0,NaN,0.936,8.5,0.0,18 / 19,287531,2020-03-19 19:22:01:300
9.749189,-10.568007,-17.463306,0.0,49.83741,24.035042,384.0,NaN,0.936,8.5,0.0,18 / 19,288031,2020-03-19 19:22:01:800
6.071696,-10.122684,7.580043,0.0,49.83741,24.035042,384.0,NaN,0.936,8.5,0.0,18 / 19,288531,2020-03-19 19:22:02:300
4.697424,1.446098,7.599196,8.0,49.83741,24.035042,384.0,NaN,0.936,8.5,0.0,18 / 19,289031,2020-03-19 19:22:02:800
4.429273,2.590526,7.465121,8.0,49.83741,24.035042,384.0,NaN,0.936,8.5,0.0,18 / 19,289531,2020-03-19 19:22:03:300
5.837064,0.363919,4.276045,8.0,49.83741,24.035042,384.0,NaN,0.936,8.5,0.0,18 / 19,290032,2020-03-19 19:22:03:801
2.585738,3.256114,2.48997,8.0,49.83741,24.035042,384.0,NaN,0.936,8.5,0.0,18 / 19,290530,2020-03-19 19:22:04:299
-2.37026,3.562572,7.85777,8.0,49.83741,24.035042,384.0,NaN,0.936,8.5,0.0,18 / 19,291031,2020-03-19 19:22:04:800