ACCELEROMETER X (m/s²),ACCELEROMETER Y (m/s²),ACCELEROMETER Z (m/s²),PROXIMITY (m),LOCATION Latitude : ,LOCATION Longitude : ,LOCATION Altitude ( m),LOCATION Altitude-google ( m),LOCATION Speed ( Kmh),LOCATION Accuracy ( m),LOCATION ORIENTATION (°),Satellites in range,Time since start in ms ,YYYY-MO-DD HH-MI-SS_SSS
5.93762,-1.455675,4.43885,8.0,49.83741,24.035042,384.0,NaN,0.936,8.5,0.0,0 / 0,32,2020-03-19 19:51:25:365
10.888829,-10.204087,7.07726,8.0,49.83741,24.035042,384.0,NaN,0.936,8.5,0.0,0 / 0,532,2020-03-19 19:51:25:865
20.049046,-8.159439,3.122039,0.0,49.83741,24.035042,384.0,NaN,0.936,8.5,0.0,0 / 1,1032,2020-03-19 19:51:26:365
5.664682,-12.808979,-2.700659,0.0,49.83741,24.035042,384.0,NaN,0.936,8.5,0.0,0 / 1,1532,2020-03-19 19:51:26:865
6.416461,-11.765107,5.693412,0.0,49.83741,24.035042,384.0,NaN,0.936,8.5,0.0,0 / 4,2032,2020-03-19 19:51:27:365
-1.862689,-2.236184,2.044648,0.0,49.83741,24.035042,384.0,NaN,0.936,8.5,0.0,0 / 4,2532,2020-03-19 19:51:27:865
1.120486,-7.359776,1.053449,0.0,49.83741,24.035042,384.0,NaN,0.936,8.5,0.0,0 / 6,3032,2020-03-19 19:51:28:365
3.260903,-9.356541,0.129287,0.0,49.83741,24.035042,384.0,NaN,0.936,8.5,0.0,0 / 6,3532,2020-03-19 19:51:28:865
12.818556,-17.606958,-4.975151,0.0,49.83741,24.035042,384.0,NaN,0.936,8.5,0.0,0 / 6,4032,2020-03-19 19:51:29:365
1.134852,-15.931018,-3.792415,0.0,49.83741,24.035042,384.0,NaN,0.936,8.5,0.0,0 / 6,4532,2020-03-19 19:51:29:865
16.141708,-18.727446,-9.835381,0.0,49.83741,24.035042,384.0,NaN,0.936,8.5,0.0,0 / 8,5032,2020-03-19 19:51:30:365
1.70946,-13.88637,-3.682282,0.0,49.83741,24.035042,384.0,NaN,0.936,8.5,0.0,0 / 8,5532,2020-03-19 19:51:30:865
2.671929,-11.195287,-3.141193,0.0,49.83741,24.035042,384.0,NaN,0.936,8.5,0.0,0 / 8,6033,2020-03-19 19:51:31:366
3.366248,-10.563218,1.067814,0.0,49.83741,24.035042,384.0,NaN,0.936,8.5,0.0,0 / 8,6532,2020-03-19 19:51:31:865
-1.766921,-4.046201,0.751779,0.0,49.83741,24.035042,384.0,NaN,0.936,8.5,0.0,0 / 8,7032,2020-03-19 19:51:32:365
2.044648,-8.839393,1.666364,0.0,49.83741,24.035042,384.0,NaN,0.936,8.5,0.0,0 / 8,7532,2020-03-19 19:51:32:865
2.873042,-11.592725,-1.082179,0.0,49.840034,24.03644,306.0,NaN,4.86,18.0,0.0,7 / 8,8032,2020-03-19 19:51:33:365
0.507571,-14.5759,-3.485957,0.0,49.840034,24.03644,306.0,NaN,4.86,18.0,0.0,7 / 8,8532,2020-03-19 19:51:33:865
3.337517,-13.570335,-2.5187,0.0,49.840034,24.03644,306.0,NaN,4.86,18.0,0.0,7 / 8,9032,2020-03-19 19:51:34:365
6.83784,-6.971915,-6.186617,0.0,49.840034,24.03644,306.0,NaN,4.86,18.0,0.0,7 / 8,9532,2020-03-19 19:51:34:865
2.834735,-9.557653,1.900996,0.0,49.840034,24.03644,306.0,NaN,4.86,18.0,0.0,7 / 8,10032,2020-03-19 19:51:35:365
1.762132,-10.70687,-7.139509,0.0,49.840034,24.03644,306.0,NaN,4.86,18.0,0.0,7 / 8,10533,2020-03-19 19:51:35:866
0.876278,-9.054871,0.47884,0.0,49.840034,24.03644,306.0,NaN,4.86,18.0,0.0,7 / 8,11032,2020-03-19 19:51:36:365
-1.762132,-4.668693,0.229843,0.0,49.840034,24.03644,306.0,NaN,4.86,18.0,0.0,7 / 8,11532,2020-03-19 19:51:36:865
-5.851429,-8.456321,-0.244209,0.0,49.840034,24.03644,306.0,NaN,4.86,18.0,0.0,7 / 8,12032,2020-03-19 19:51:37:365
-6.995857,-18.425776,1.067814,0.0,49.840034,24.03644,306.0,NaN,4.86,18.0,0.0,7 / 8,12532,2020-03-19 19:51:37:865
-2.853888,-16.898275,-8.312668,0.0,49.840034,24.03644,306.0,NaN,4.86,18.0,0.0,7 / 8,13032,2020-03-19 19:51:38:365
2.221819,-11.760319,0.881066,0.0,49.840034,24.03644,306.0,NaN,4.86,18.0,0.0,7 / 8,13533,2020-03-19 19:51:38:866
4.711789,-11.985373,-11.731588,0.0,49.840034,24.03644,306.0,NaN,4.86,18.0,0.0,7 / 8,14032,2020-03-19 19:51:39:365
0.545878,-11.975797,1.881843,0.0,49.840034,24.03644,306.0,NaN,4.86,18.0,0.0,7 / 8,14532,2020-03-19 19:51:39:865
3.016694,-6.272808,-4.817134,0.0,49.840034,24.03644,306.0,NaN,4.86,18.0,0.0,7 / 8,15032,2020-03-19 19:51:40:365
-0.656011,-8.350976,0.11971,0.0,49.840034,24.03644,306.0,NaN,4.86,18.0,0.0,7 / 8,15532,2020-03-19 19:51:40:865
1.94888,-7.570465,0.737414,0.0,49.840034,24.03644,306.0,NaN,4.86,18.0,0.0,7 / 8,16032,2020-03-19 19:51:41:365
1.024718,-6.938396,1.11091,0.0,49.840034,24.03644,306.0,NaN,4.86,18.0,0.0,7 / 8,16532,2020-03-19 19:51:41:865
-6.617573,-15.035586,2.379837,0.0,49.840034,24.03644,306.0,NaN,4.86,18.0,0.0,7 / 8,17032,2020-03-19 19:51:42:365
6.258444,-21.993137,-16.371552,0.0,49.840034,24.03644,306.0,NaN,4.86,18.0,0.0,7 / 8,17532,2020-03-19 19:51:42:865
1.608904,-11.066,0.407014,0.0,49.840034,24.03644,306.0,NaN,4.86,18.0,0.0,7 / 8,18032,2020-03-19 19:51:43:365
2.925715,-16.654066,-11.33894,0.0,49.840034,24.03644,306.0,NaN,4.86,18.0,0.0,7 / 8,18532,2020-03-19 19:51:43:865
4.616021,-10.534488,0.02873,0.0,49.840034,24.03644,306.0,NaN,4.86,18.0,0.0,7 / 8,19033,2020-03-19 19:51:44:366
-2.240973,-2.777274,0.828394,0.0,49.840034,24.03644,306.0,NaN,4.86,18.0,0.0,7 / 8,19532,2020-03-19 19:51:44:865
1.781286,-8.188169,0.454898,0.0,49.840034,24.03644,306.0,NaN,4.86,18.0,0.0,7 / 8,20032,2020-03-19 19:51:45:365
3.734955,-9.452309,-0.138864,0.0,49.840034,24.03644,306.0,NaN,4.86,18.0,0.0,7 / 8,20533,2020-03-19 19:51:45:866
4.122815,-18.909405,-7.043741,0.0,49.840034,24.03644,306.0,NaN,4.86,18.0,0.0,7 / 8,21032,2020-03-19 19:51:46:365
2.035071,-15.040375,-3.998317,0.0,49.840034,24.03644,306.0,NaN,4.86,18.0,0.0,7 / 8,21532,2020-03-19 19:51:46:865
1.240197,-5.003881,-4.333505,0.0,49.840034,24.03644,306.0,NaN,4.86,18.0,0.0,7 / 8,22032,2020-03-19 19:51:47:365
5.133168,-15.763424,-2.954445,0.0,49.840034,24.03644,306.0,NaN,4.86,18.0,0.0,7 / 8,22532,2020-03-19 19:51:47:865
1.786075,-6.679823,-3.931279,0.0,49.840034,24.03644,306.0,NaN,4.86,18.0,0.0,7 / 8,23032,2020-03-19 19:51:48:365
0.138864,-9.993398,0.42138,0.0,49.840034,24.03644,306.0,NaN,4.86,18.0,0.0,7 / 8,23532,2020-03-19 19:51:48:865
-2.145205,-1.814805,0.320823,0.0,49.840034,24.03644,306.0,NaN,4.86,18.0,0.0,7 / 8,24032,2020-03-19 19:51:49:365
1.312023,-8.753201,0.651223,0.0,49.840034,24.03644,306.0,NaN,4.86,18.0,0.0,7 / 8,24532,2020-03-19 19:51:49:865
3.72059,-10.146626,-0.78051,0.0,49.840034,24.03644,306.0,NaN,4.86,18.0,0.0,7 / 8,25032,2020-03-19 19:51:50:365
7.062895,-14.767436,-2.853888,0.0,49.840034,24.03644,306.0,NaN,4.86,18.0,0.0,7 / 8,25532,2020-03-19 19:51:50:865
2.499547,-16.43859,-4.592078,0.0,49.840034,24.03644,306.0,NaN,4.86,18.0,0.0,7 / 8,26033,2020-03-19 19:51:51:366
-1.905785,-7.613561,-3.045424,0.0,49.840034,24.03644,306.0,NaN,4.86,18.0,0.0,7 / 8,26532,2020-03-19 19:51:51:865
0.588974,-10.184934,0.186748,0.0,49.840034,24.03644,306.0,NaN,4.86,18.0,0.0,7 / 8,27032,2020-03-19 19:51:52:365
-1.541866,-9.816227,-7.699753,0.0,49.840034,24.03644,306.0,NaN,4.86,18.0,0.0,7 / 8,27532,2020-03-19 19:51:52:865
-1.039083,-10.520123,-1.359906,0.0,49.840034,24.03644,306.0,NaN,4.86,18.0,0.0,7 / 8,28032,2020-03-19 19:51:53:365
-2.528277,-2.700659,1.407791,0.0,49.840034,24.03644,306.0,NaN,4.86,18.0,0.0,7 / 8,28532,2020-03-19 19:51:53:865
-0.579397,-9.80665,-1.063026,0.0,49.840034,24.03644,306.0,NaN,4.86,18.0,0.0,7 / 8,29032,2020-03-19 19:51:54:365
-0.114922,-11.353305,-2.987964,0.0,49.840034,24.03644,306.0,NaN,4.86,18.0,0.0,7 / 8,29532,2020-03-19 19:51:54:865
-1.838747,-11.942278,4.582502,0.0,49.840034,24.03644,306.0,NaN,4.86,18.0,0.0,7 / 8,30033,2020-03-19 19:51:55:366
2.260126,-13.283031,-1.182736,0.0,49.840034,24.03644,306.0,NaN,4.86,18.0,0.0,7 / 8,30532,2020-03-19 19:51:55:865
-1.82917,-15.729905,-14.580688,0.0,49.840034,24.03644,306.0,NaN,4.86,18.0,0.0,7 / 8,31033,2020-03-19 19:51:56:366
-1.49877,-12.181698,0.579397,0.0,49.840034,24.03644,306.0,NaN,4.86,18.0,0.0,7 / 8,31533,2020-03-19 19:51:56:866
0.095768,-14.460979,-16.31409,0.0,49.840034,24.03644,306.0,NaN,4.86,18.0,0.0,7 / 8,32033,2020-03-19 19:51:57:366
-1.460463,-8.719683,1.412579,0.0,49.840034,24.03644,306.0,NaN,4.86,18.0,0.0,7 / 8,32532,2020-03-19 19:51:57:865
0.023942,-6.41646,-0.014365,0.0,49.840034,24.03644,306.0,NaN,4.86,18.0,0.0,7 / 8,33032,2020-03-19 19:51:58:365
2.710236,-10.658986,-0.641646,0.0,49.840034,24.03644,306.0,NaN,4.86,18.0,0.0,7 / 8,33532,2020-03-19 19:51:58:865
0.905008,-16.678009,-4.065354,0.0,49.840034,24.03644,306.0,NaN,4.86,18.0,0.0,7 / 8,34032,2020-03-19 19:51:59:365
2.547431,-5.181052,-5.080496,0.0,49.840034,24.03644,306.0,NaN,4.86,18.0,0.0,7 / 8,34533,2020-03-19 19:51:59:866
3.021483,-11.224017,-0.062249,0.0,49.840034,24.03644,306.0,NaN,4.86,18.0,0.0,7 / 8,35032,2020-03-19 19:52:00:365
-2.42772,-1.632845,1.958457,0.0,49.840034,24.03644,306.0,NaN,4.86,18.0,0.0,7 / 8,35532,2020-03-19 19:52:00:865
-4.003105,-7.43639,-1.321599,0.0,49.840034,24.03644,306.0,NaN,4.86,18.0,0.0,7 / 8,36032,2020-03-19 19:52:01:365
-3.141193,-3.945644,0.871489,0.0,49.840034,24.03644,306.0,NaN,4.86,18.0,0.0,7 / 8,36532,2020-03-19 19:52:01:865
-8.010998,-5.856217,0.799663,0.0,49.840034,24.03644,306.0,NaN,4.86,18.0,0.0,7 / 8,37032,2020-03-19 19:52:02:365
-7.383718,-13.28782,-2.437297,0.0,49.840034,24.03644,306.0,NaN,4.86,18.0,0.0,7 / 8,37532,2020-03-19 19:52:02:865
-13.278243,-0.301669,-6.426037,0.0,49.840034,24.03644,306.0,NaN,4.86,18.0,0.0,7 / 8,38032,2020-03-19 19:52:03:365
-2.154781,-11.736377,0.981623,0.0,49.840034,24.03644,306.0,NaN,4.86,18.0,0.0,7 / 8,38532,2020-03-19 19:52:03:865
-1.302446,-12.531252,-12.583924,0.0,49.840034,24.03644,306.0,NaN,4.86,18.0,0.0,7 / 8,39032,2020-03-19 19:52:04:365
-1.73819,-7.513005,0.617704,0.0,49.840034,24.03644,306.0,NaN,4.86,18.0,0.0,7 / 8,39532,2020-03-19 19:52:04:865
1.403002,-7.881712,0.603339,0.0,49.840034,24.03644,306.0,NaN,4.86,18.0,0.0,7 / 8,40032,2020-03-19 19:52:05:365
2.351106,-12.459426,-1.944092,0.0,49.840034,24.03644,306.0,NaN,4.86,18.0,0.0,7 / 8,40532,2020-03-19 19:52:05:865
2.422932,-9.165004,-1.077391,0.0,49.840034,24.03644,306.0,NaN,4.86,18.0,0.0,7 / 8,41032,2020-03-19 19:52:06:365
3.8403,-15.246277,-4.673482,0.0,49.840034,24.03644,306.0,NaN,4.86,18.0,0.0,7 / 8,41532,2020-03-19 19:52:06:865
-7.632715,-12.631808,-0.416591,0.0,49.840034,24.03644,306.0,NaN,4.86,18.0,0.0,7 / 8,42032,2020-03-19 19:52:07:365
2.217031,-20.2741,-7.943961,0.0,49.840034,24.03644,306.0,NaN,4.86,18.0,0.0,7 / 8,42532,2020-03-19 19:52:07:865
-0.138864,-12.023681,0.952892,0.0,49.840034,24.03644,306.0,NaN,4.86,18.0,0.0,7 / 8,43032,2020-03-19 19:52:08:365
-0.78051,-5.123591,-2.710236,0.0,49.840034,24.03644,306.0,NaN,4.86,18.0,0.0,7 / 8,43532,2020-03-19 19:52:08:865
-2.537854,-8.820239,-0.981623,0.0,49.840034,24.03644,306.0,NaN,4.86,18.0,0.0,7 / 8,44032,2020-03-19 19:52:09:365
0.282516,-7.829039,1.316811,0.0,49.840034,24.03644,306.0,NaN,4.86,18.0,0.0,7 / 8,44532,2020-03-19 19:52:09:865
3.500323,-12.593501,-1.92015,0.0,49.840034,24.03644,306.0,NaN,4.86,18.0,0.0,7 / 8,45032,2020-03-19 19:52:10:365
-0.608127,-9.112331,0.114922,0.0,49.840034,24.03644,306.0,NaN,4.86,18.0,0.0,7 / 8,45532,2020-03-19 19:52:10:865
0.062249,-11.93749,-1.221043,0.0,49.840034,24.03644,306.0,NaN,4.86,18.0,0.0,7 / 8,46032,2020-03-19 19:52:11:365
-4.764461,-10.951078,-5.372588,0.0,49.840034,24.03644,306.0,NaN,4.86,18.0,0.0,7 / 8,46532,2020-03-19 19:52:11:865
-1.182736,-6.493075,-3.107674,0.0,49.840034,24.03644,306.0,NaN,4.86,18.0,0.0,7 / 8,47033,2020-03-19 19:52:12:366
2.063802,-12.08593,2.293645,0.0,49.840034,24.03644,306.0,NaN,4.86,18.0,0.0,7 / 8,47532,2020-03-19 19:52:12:865
-2.260126,-1.939303,0.445322,0.0,49.840034,24.03644,306.0,NaN,4.86,18.0,0.0,7 / 8,48032,2020-03-19 19:52:13:365
-1.340753,-7.934384,-0.373495,0.0,49.840034,24.03644,306.0,NaN,4.86,18.0,0.0,7 / 8,48533,2020-03-19 19:52:13:866
1.690306,-11.343728,0.301669,0.0,49.840034,24.03644,306.0,NaN,4.86,18.0,0.0,7 / 8,49033,2020-03-19 19:52:14:366
2.480393,-21.571756,-11.45865,0.0,49.840034,24.03644,306.0,NaN,4.86,18.0,0.0,7 / 8,49533,2020-03-19 19:52:14:866
-3.524265,-13.608643,-4.175488,0.0,49.840034,24.03644,306.0,NaN,4.86,18.0,0.0,7 / 8,50032,2020-03-19 19:52:15:365
-3.476381,-16.955736,-0.416591,0.0,49.840034,24.03644,306.0,NaN,4.86,18.0,0.0,7 / 8,50532,2020-03-19 19:52:15:865
0.814029,-15.921441,-5.650316,0.0,49.840034,24.03644,306.0,NaN,4.86,18.0,0.0,7 / 8,51032,2020-03-19 19:52:16:365
-3.892972,-4.089296,-4.984728,0.0,49.840034,24.03644,306.0,NaN,4.86,18.0,0.0,7 / 8,51533,2020-03-19 19:52:16:866
-0.11971,-11.109096,0.263362,0.0,49.840034,24.03644,306.0,NaN,4.86,18.0,0.0,7 / 8,52033,2020-03-19 19:52:17:366
-3.155558,-0.857124,2.619257,0.0,49.840034,24.03644,306.0,NaN,4.86,18.0,0.0,7 / 8,52533,2020-03-19 19:52:17:866
-2.121263,-8.805874,-1.441309,0.0,49.840034,24.03644,306.0,NaN,4.86,18.0,0.0,7 / 8,53032,2020-03-19 19:52:18:365
-5.228936,-11.032481,-2.15957,0.0,49.840034,24.03644,306.0,NaN,4.86,18.0,0.0,7 / 8,53532,2020-03-19 19:52:18:865
-5.928043,-0.114922,3.792416,0.0,49.840034,24.03644,306.0,NaN,4.86,18.0,0.0,7 / 8,54032,2020-03-19 19:52:19:365
-2.691083,-12.947843,-3.050213,0.0,49.840034,24.03644,306.0,NaN,4.86,18.0,0.0,7 / 8,54532,2020-03-19 19:52:19:865
-10.022128,6.167464,0.023942,0.0,49.840034,24.03644,306.0,NaN,4.86,18.0,0.0,7 / 8,55032,2020-03-19 19:52:20:365
-3.734954,-11.774684,0.009577,0.0,49.840034,24.03644,306.0,NaN,4.86,18.0,0.0,7 / 8,55532,2020-03-19 19:52:20:865
-0.325611,-9.552865,-8.571242,0.0,49.840034,24.03644,306.0,NaN,4.86,18.0,0.0,7 / 8,56032,2020-03-19 19:52:21:365
-3.32794,-7.762002,-0.244209,0.0,49.840034,24.03644,306.0,NaN,4.86,18.0,0.0,0 / 0,56533,2020-03-19 19:52:21:866
0.952892,-10.860099,-0.756568,0.0,49.840034,24.03644,306.0,NaN,4.86,18.0,0.0,0 / 0,57032,2020-03-19 19:52:22:365
-0.196325,-16.280571,-4.271256,0.0,49.840034,24.03644,306.0,NaN,4.86,18.0,0.0,0 / 3,57532,2020-03-19 19:52:22:865
-0.905008,-13.88637,-5.674258,0.0,49.840034,24.03644,306.0,NaN,4.86,18.0,0.0,0 / 3,58032,2020-03-19 19:52:23:365
-7.64708,-8.623915,-3.002329,0.0,49.840034,24.03644,306.0,NaN,4.86,18.0,0.0,0 / 8,58532,2020-03-19 19:52:23:865
1.532289,-12.038046,-0.234632,0.0,49.840034,24.03644,306.0,NaN,4.86,18.0,0.0,0 / 8,59032,2020-03-19 19:52:24:365
-1.532289,-2.987964,-1.685518,0.0,49.840034,24.03644,306.0,NaN,4.86,18.0,0.0,0 / 9,59532,2020-03-19 19:52:24:865
-4.529829,-8.987833,1.005565,0.0,49.840034,24.03644,306.0,NaN,4.86,18.0,0.0,0 / 9,60032,2020-03-19 19:52:25:365
-3.739743,-2.896984,1.312023,0.0,49.84076,24.036674,348.0,NaN,2.952,11.0,18.9,14 / 15,60532,2020-03-19 19:52:25:865
-9.006987,-5.631162,-0.244209,0.0,49.84076,24.036674,348.0,NaN,2.952,11.0,18.9,14 / 15,61032,2020-03-19 19:52:26:365
-15.581465,-12.325351,4.730943,0.0,49.84076,24.036674,348.0,NaN,2.952,11.0,18.9,14 / 15,61532,2020-03-19 19:52:26:865
0.588974,-7.685387,13.120225,0.0,49.84076,24.036674,348.0,NaN,2.952,11.0,18.9,14 / 15,62032,2020-03-19 19:52:27:365
-3.998317,-11.501745,-0.220267,0.0,49.84076,24.036674,348.0,NaN,2.952,11.0,18.9,14 / 15,62532,2020-03-19 19:52:27:865
-3.074155,-2.087744,0.670377,0.0,49.84076,24.036674,348.0,NaN,2.952,11.0,18.9,14 / 15,63032,2020-03-19 19:52:28:365
-1.704672,-8.576031,-0.785298,0.0,49.84076,24.036674,348.0,NaN,2.952,11.0,18.9,14 / 15,63532,2020-03-19 19:52:28:865
-0.952892,-0.890643,1.177947,0.0,49.84076,24.036674,348.0,NaN,2.952,11.0,18.9,14 / 15,64032,2020-03-19 19:52:29:365
-8.710106,-6.038176,-0.584185,0.0,49.84076,24.036674,348.0,NaN,2.952,11.0,18.9,14 / 15,64532,2020-03-19 19:52:29:865
-13.713987,-11.908759,-1.49877,0.0,49.84076,24.036674,348.0,NaN,2.952,11.0,18.9,14 / 15,65032,2020-03-19 19:52:30:365
-11.769896,5.133168,-0.062249,0.0,49.84076,24.036674,348.0,NaN,2.952,11.0,18.9,14 / 15,65532,2020-03-19 19:52:30:865
-4.707,-11.731588,-0.545878,0.0,49.84076,24.036674,348.0,NaN,2.952,11.0,18.9,14 / 15,66032,2020-03-19 19:52:31:365
-9.883265,-12.248735,-15.217546,0.0,49.84076,24.036674,348.0,NaN,2.952,11.0,18.9,14 / 15,66532,2020-03-19 19:52:31:865
-3.375824,-7.905654,0.45011,0.0,49.84076,24.036674,348.0,NaN,2.952,11.0,18.9,14 / 15,67032,2020-03-19 19:52:32:365
-0.440533,-9.835381,0.454898,0.0,49.84076,24.036674,348.0,NaN,2.952,11.0,18.9,14 / 15,67532,2020-03-19 19:52:32:865
-0.512359,-9.528923,-0.287304,0.0,49.84076,24.036674,348.0,NaN,2.952,11.0,18.9,14 / 15,68032,2020-03-19 19:52:33:365
-0.258574,-10.663774,-1.651999,0.0,49.84076,24.036674,348.0,NaN,2.952,11.0,18.9,14 / 15,68532,2020-03-19 19:52:33:865
-5.24809,-14.508862,4.084508,0.0,49.84076,24.036674,348.0,NaN,2.952,11.0,18.9,14 / 15,69032,2020-03-19 19:52:34:365
-3.126827,-16.639702,-4.266467,0.0,49.84076,24.036674,348.0,NaN,2.952,11.0,18.9,14 / 15,69532,2020-03-19 19:52:34:865
-5.813122,-7.173028,-6.081272,0.0,49.84076,24.036674,348.0,NaN,2.952,11.0,18.9,14 / 15,70032,2020-03-19 19:52:35:365
1.096544,-13.297397,1.216255,0.0,49.84076,24.036674,348.0,NaN,2.952,11.0,18.9,14 / 15,70532,2020-03-19 19:52:35:865
-2.30801,-0.957681,2.078167,0.0,49.84076,24.036674,348.0,NaN,2.952,11.0,18.9,14 / 15,71032,2020-03-19 19:52:36:365
-2.317587,-7.991845,-1.460463,0.0,49.84076,24.036674,348.0,NaN,2.952,11.0,18.9,14 / 15,71532,2020-03-19 19:52:36:865
-0.454898,-10.204087,-1.412579,0.0,49.84076,24.036674,348.0,NaN,2.952,11.0,18.9,14 / 15,72032,2020-03-19 19:52:37:365
-1.781286,-9.696517,0.497994,0.0,49.84076,24.036674,348.0,NaN,2.952,11.0,18.9,14 / 15,72532,2020-03-19 19:52:37:865
-2.442086,-11.113884,-2.461239,0.0,49.84076,24.036674,348.0,NaN,2.952,11.0,18.9,14 / 15,73032,2020-03-19 19:52:38:365
-6.287173,-17.51119,-6.828263,0.0,49.84076,24.036674,348.0,NaN,2.952,11.0,18.9,14 / 15,73532,2020-03-19 19:52:38:865
-4.707,-13.982138,-4.841076,0.0,49.84076,24.036674,348.0,NaN,2.952,11.0,18.9,14 / 15,74032,2020-03-19 19:52:39:365
-2.643199,-7.450755,-4.141969,0.0,49.84076,24.036674,348.0,NaN,2.952,11.0,18.9,14 / 15,74532,2020-03-19 19:52:39:865
-4.01747,-10.989386,-0.727837,0.0,49.84076,24.036674,348.0,NaN,2.952,11.0,18.9,14 / 15,75032,2020-03-19 19:52:40:365
-1.704672,-2.715025,1.80044,0.0,49.84076,24.036674,348.0,NaN,2.952,11.0,18.9,14 / 15,75532,2020-03-19 19:52:40:865
-1.872266,-9.246407,-1.273715,0.0,49.84076,24.036674,348.0,NaN,2.952,11.0,18.9,14 / 15,76032,2020-03-19 19:52:41:365
-0.713472,-8.413225,0.723049,0.0,49.84076,24.036674,348.0,NaN,2.952,11.0,18.9,14 / 15,76532,2020-03-19 19:52:41:865
1.11091,-8.485051,1.537078,0.0,49.84076,24.036674,348.0,NaN,2.952,11.0,18.9,14 / 15,77033,2020-03-19 19:52:42:366
-2.604891,-9.433155,-0.138864,0.0,49.84076,24.036674,348.0,NaN,2.952,11.0,18.9,14 / 15,77532,2020-03-19 19:52:42:865
-5.602432,-19.977219,-8.188169,0.0,49.84076,24.036674,348.0,NaN,2.952,11.0,18.9,14 / 15,78032,2020-03-19 19:52:43:365
-2.949656,-13.517663,-5.688623,0.0,49.84076,24.036674,348.0,NaN,2.952,11.0,18.9,14 / 15,78532,2020-03-19 19:52:43:865
-4.343082,-4.754884,-3.768473,0.0,49.84076,24.036674,348.0,NaN,2.952,11.0,18.9,14 / 15,79032,2020-03-19 19:52:44:365
0.42138,-12.445061,-0.220267,0.0,49.84076,24.036674,348.0,NaN,2.952,11.0,18.9,14 / 15,79532,2020-03-19 19:52:44:865
-1.01993,-0.196325,2.418144,0.0,49.84076,24.036674,348.0,NaN,2.952,11.0,18.9,14 / 15,80033,2020-03-19 19:52:45:366
-2.408567,-8.590396,-0.263362,0.0,49.84076,24.036674,348.0,NaN,2.952,11.0,18.9,14 / 15,80532,2020-03-19 19:52:45:865
-7.015011,-11.310209,-1.872266,0.0,49.84076,24.036674,348.0,NaN,2.952,11.0,18.9,14 / 15,81032,2020-03-19 19:52:46:365
-3.936067,-7.129933,-0.162806,0.0,49.84076,24.036674,348.0,NaN,2.952,11.0,18.9,14 / 15,81532,2020-03-19 19:52:46:865
-8.331821,-10.065224,-1.900996,0.0,49.84076,24.036674,348.0,NaN,2.952,11.0,18.9,14 / 15,82032,2020-03-19 19:52:47:365
-6.885724,-16.055517,1.398214,0.0,49.84076,24.036674,348.0,NaN,2.952,11.0,18.9,14 / 15,82532,2020-03-19 19:52:47:865
-3.576937,-13.172897,-2.542642,0.0,49.84076,24.036674,348.0,NaN,2.952,11.0,18.9,14 / 15,83032,2020-03-19 19:52:48:365
-12.62702,-9.385271,-6.550535,0.0,49.84076,24.036674,348.0,NaN,2.952,11.0,18.9,14 / 15,83532,2020-03-19 19:52:48:865
-5.061342,-8.178592,-0.023942,0.0,49.84076,24.036674,348.0,NaN,2.952,11.0,18.9,14 / 15,84032,2020-03-19 19:52:49:365
-3.260903,-2.810793,1.695095,0.0,49.84076,24.036674,348.0,NaN,2.952,11.0,18.9,14 / 15,84532,2020-03-19 19:52:49:865
-8.710106,-4.750096,1.776498,0.0,49.84076,24.036674,348.0,NaN,2.952,11.0,18.9,14 / 15,85032,2020-03-19 19:52:50:365
-14.259866,-8.805874,-0.68953,0.0,49.84076,24.036674,348.0,NaN,2.952,11.0,18.9,14 / 15,85533,2020-03-19 19:52:50:866
-7.532158,-5.6982,-1.240196,0.0,49.84076,24.036674,348.0,NaN,2.952,11.0,18.9,14 / 15,86032,2020-03-19 19:52:51:365
-12.53604,-9.691729,-1.369483,0.0,49.84076,24.036674,348.0,NaN,2.952,11.0,18.9,14 / 15,86533,2020-03-19 19:52:51:866
2.011129,8.125921,7.685388,0.0,49.84076,24.036674,348.0,NaN,2.952,11.0,18.9,14 / 15,87033,2020-03-19 19:52:52:366
-3.394978,-13.9151,-1.182736,0.0,49.84076,24.036674,348.0,NaN,2.952,11.0,18.9,14 / 15,87532,2020-03-19 19:52:52:865
-14.101848,-12.052411,-17.00841,0.0,49.84076,24.036674,348.0,NaN,2.952,11.0,18.9,14 / 15,88033,2020-03-19 19:52:53:366
-3.964798,-7.426813,-0.076614,0.0,49.84076,24.036674,348.0,NaN,2.952,11.0,18.9,14 / 15,88533,2020-03-19 19:52:53:866
-2.063802,-4.702212,-0.062249,0.0,49.84076,24.036674,348.0,NaN,2.952,11.0,18.9,14 / 15,89032,2020-03-19 19:52:54:365
-6.981492,-5.070919,0.617704,0.0,49.84076,24.036674,348.0,NaN,2.952,11.0,18.9,14 / 15,89533,2020-03-19 19:52:54:866
-14.599842,-14.657303,6.349423,0.0,49.84076,24.036674,348.0,NaN,2.952,11.0,18.9,14 / 15,90033,2020-03-19 19:52:55:366
-0.665588,-12.957419,-0.770933,0.0,49.84076,24.036674,348.0,NaN,2.952,11.0,18.9,14 / 15,90532,2020-03-19 19:52:55:865
-15.102624,-12.162544,5.928044,0.0,49.84076,24.036674,348.0,NaN,2.952,11.0,18.9,14 / 15,91032,2020-03-19 19:52:56:365
-15.294161,-14.480132,-6.967127,0.0,49.84076,24.036674,348.0,NaN,2.952,11.0,18.9,14 / 15,91532,2020-03-19 19:52:56:865
-6.74686,-10.180145,-1.388637,0.0,49.84076,24.036674,348.0,NaN,2.952,11.0,18.9,14 / 15,92032,2020-03-19 19:52:57:365
-2.96881,-3.907337,-5.152322,0.0,49.84076,24.036674,348.0,NaN,2.952,11.0,18.9,14 / 15,92532,2020-03-19 19:52:57:865
-4.01747,-7.129933,-0.435745,0.0,49.84076,24.036674,348.0,NaN,2.952,11.0,18.9,14 / 15,93032,2020-03-19 19:52:58:365
1.345541,-10.204087,-0.565032,0.0,49.84076,24.036674,348.0,NaN,2.952,11.0,18.9,14 / 15,93532,2020-03-19 19:52:58:865
-4.94642,-18.061857,-8.092401,0.0,49.84076,24.036674,348.0,NaN,2.952,11.0,18.9,14 / 15,94032,2020-03-19 19:52:59:365
0.277727,-10.362105,-0.775721,0.0,49.84076,24.036674,348.0,NaN,2.952,11.0,18.9,14 / 15,94533,2020-03-19 19:52:59:866
-4.132392,-16.663643,-4.620809,0.0,49.84076,24.036674,348.0,NaN,2.952,11.0,18.9,14 / 15,95033,2020-03-19 19:53:00:366
-6.770802,-11.870452,-4.568136,0.0,49.84076,24.036674,348.0,NaN,2.952,11.0,18.9,14 / 15,95533,2020-03-19 19:53:00:866
-4.314351,-3.615245,-2.212242,0.0,49.84076,24.036674,348.0,NaN,2.952,11.0,18.9,14 / 15,96032,2020-03-19 19:53:01:365
-3.055001,-10.936713,-2.221819,0.0,49.84076,24.036674,348.0,NaN,2.952,11.0,18.9,14 / 15,96532,2020-03-19 19:53:01:865
-2.652775,-1.077391,1.857901,0.0,49.84076,24.036674,348.0,NaN,2.952,11.0,18.9,14 / 15,97032,2020-03-19 19:53:02:365
-9.241618,-3.256114,-0.991199,0.0,49.84076,24.036674,348.0,NaN,2.952,11.0,18.9,14 / 15,97532,2020-03-19 19:53:02:865
-12.378023,-10.989386,-0.68953,0.0,49.84076,24.036674,348.0,NaN,2.952,11.0,18.9,14 / 15,98032,2020-03-19 19:53:03:365
-6.488286,-6.766014,0.397437,0.0,49.84076,24.036674,348.0,NaN,2.952,11.0,18.9,14 / 15,98532,2020-03-19 19:53:03:865
-9.610326,-10.884041,1.125275,0.0,49.84076,24.036674,348.0,NaN,2.952,11.0,18.9,14 / 15,99032,2020-03-19 19:53:04:365
-2.748543,-5.094861,-9.710882,0.0,49.84076,24.036674,348.0,NaN,2.952,11.0,18.9,14 / 15,99532,2020-03-19 19:53:04:865
-4.079719,-9.749189,-3.409343,0.0,49.84076,24.036674,348.0,NaN,2.952,11.0,18.9,14 / 15,100032,2020-03-19 19:53:05:365
-1.781286,-1.273715,1.450886,0.0,49.84076,24.036674,348.0,NaN,2.952,11.0,18.9,14 / 15,100532,2020-03-19 19:53:05:865
-4.180276,-8.360553,-1.244985,0.0,49.84076,24.036674,348.0,NaN,2.952,11.0,18.9,14 / 15,101032,2020-03-19 19:53:06:365
-7.603985,-11.152191,-3.677494,0.0,49.84076,24.036674,348.0,NaN,2.952,11.0,18.9,14 / 15,101532,2020-03-19 19:53:06:865
-4.070143,3.529053,7.532159,0.0,49.84076,24.036674,348.0,NaN,2.952,11.0,18.9,14 / 15,102032,2020-03-19 19:53:07:365
-3.562572,-11.018116,0.981623,0.0,49.84076,24.036674,348.0,NaN,2.952,11.0,18.9,14 / 15,102532,2020-03-19 19:53:07:865
-19.6133,-17.410633,-24.123976,0.0,49.84076,24.036674,348.0,NaN,2.952,11.0,18.9,14 / 15,103032,2020-03-19 19:53:08:365
-7.967903,-8.015787,-2.5187,0.0,49.84076,24.036674,348.0,NaN,2.952,11.0,18.9,14 / 15,103532,2020-03-19 19:53:08:865
-4.122815,-1.369483,2.892196,0.0,49.84076,24.036674,348.0,NaN,2.952,11.0,18.9,14 / 15,104032,2020-03-19 19:53:09:365
-6.50744,-6.497863,-2.557007,0.0,49.84076,24.036674,348.0,NaN,2.952,11.0,18.9,14 / 15,104532,2020-03-19 19:53:09:865
-3.873818,-2.30801,1.92015,0.0,49.84076,24.036674,348.0,NaN,2.952,11.0,18.9,14 / 15,105032,2020-03-19 19:53:10:365
-6.449979,-5.564124,0.191536,0.0,49.84076,24.036674,348.0,NaN,2.952,11.0,18.9,14 / 15,105532,2020-03-19 19:53:10:865
-12.239159,-11.654974,5.209783,0.0,49.84076,24.036674,348.0,NaN,2.952,11.0,18.9,14 / 15,106032,2020-03-19 19:53:11:365
-12.081141,-13.627796,-3.002329,0.0,49.84076,24.036674,348.0,NaN,2.952,11.0,18.9,14 / 15,106532,2020-03-19 19:53:11:865
-5.870582,-11.377247,-1.177947,0.0,49.84076,24.036674,348.0,NaN,2.952,11.0,18.9,14 / 15,107033,2020-03-19 19:53:12:366
-6.584054,-7.714118,-15.47612,0.0,49.84076,24.036674,348.0,NaN,2.952,11.0,18.9,14 / 15,107532,2020-03-19 19:53:12:865
-3.653552,-7.589619,0.799663,0.0,49.84076,24.036674,348.0,NaN,2.952,11.0,18.9,14 / 15,108032,2020-03-19 19:53:13:365
-2.145205,-10.290278,-0.196325,0.0,49.84076,24.036674,348.0,NaN,2.952,11.0,18.9,14 / 15,108532,2020-03-19 19:53:13:865
-3.667917,-9.605537,0.177171,0.0,49.84076,24.036674,348.0,NaN,2.952,11.0,18.9,14 / 15,109032,2020-03-19 19:53:14:365
-7.19697,-10.812215,-1.479617,0.0,49.84076,24.036674,348.0,NaN,2.952,11.0,18.9,14 / 15,109532,2020-03-19 19:53:14:865
-4.999093,-0.411803,0.857124,0.0,49.84076,24.036674,348.0,NaN,2.952,11.0,18.9,14 / 15,110032,2020-03-19 19:53:15:365
-4.525041,-13.599066,-2.987964,0.0,49.84076,24.036674,348.0,NaN,2.952,11.0,18.9,14 / 15,110532,2020-03-19 19:53:15:865
-8.422802,-9.844957,-7.666234,0.0,49.84076,24.036674,348.0,NaN,2.952,11.0,18.9,14 / 15,111032,2020-03-19 19:53:16:365
-3.016694,-10.19451,-0.972046,0.0,49.84076,24.036674,348.0,NaN,2.952,11.0,18.9,14 / 15,111532,2020-03-19 19:53:16:865
-3.002329,-1.345541,2.695871,0.0,49.84076,24.036674,348.0,NaN,2.952,11.0,18.9,14 / 15,112032,2020-03-19 19:53:17:365
-6.928819,-5.252878,-0.507571,0.0,49.84076,24.036674,348.0,NaN,2.952,11.0,18.9,14 / 15,112532,2020-03-19 19:53:17:865
-6.301539,-10.13705,-2.432509,0.0,49.84076,24.036674,348.0,NaN,2.952,11.0,18.9,14 / 15,113032,2020-03-19 19:53:18:365
-4.908113,-7.776367,-0.488417,0.0,49.84076,24.036674,348.0,NaN,2.952,11.0,18.9,14 / 15,113532,2020-03-19 19:53:18:865
-5.813122,-11.482592,-1.714248,0.0,49.84076,24.036674,348.0,NaN,2.952,11.0,18.9,14 / 15,114033,2020-03-19 19:53:19:366
-7.331045,-14.642938,7.153875,0.0,49.84076,24.036674,348.0,NaN,2.952,11.0,18.9,14 / 15,114533,2020-03-19 19:53:19:866
-4.481945,-13.747506,-4.49631,0.0,49.84076,24.036674,348.0,NaN,2.952,11.0,18.9,14 / 15,115032,2020-03-19 19:53:20:365
-3.907337,-7.120356,-7.10599,0.0,49.84076,24.036674,348.0,NaN,2.952,11.0,18.9,14 / 15,115532,2020-03-19 19:53:20:865
-0.991199,-10.898406,-1.422156,0.0,49.84076,24.036674,348.0,NaN,2.952,11.0,18.9,14 / 15,116032,2020-03-19 19:53:21:365
-1.40779,-0.670376,2.164359,0.0,49.84076,24.036674,348.0,NaN,2.952,11.0,18.9,14 / 15,116532,2020-03-19 19:53:21:865
-4.472368,-6.856993,-0.287304,0.0,49.84076,24.036674,348.0,NaN,2.952,11.0,18.9,14 / 15,117032,2020-03-19 19:53:22:365
-9.232041,-9.069236,-1.656788,0.0,49.84076,24.036674,348.0,NaN,2.952,11.0,18.9,14 / 15,117532,2020-03-19 19:53:22:865
-7.790732,-4.022259,3.41892,0.0,49.84076,24.036674,348.0,NaN,2.952,11.0,18.9,14 / 15,118032,2020-03-19 19:53:23:365
-4.314351,-14.235924,-3.983951,0.0,49.84076,24.036674,348.0,NaN,2.952,11.0,18.9,14 / 15,118532,2020-03-19 19:53:23:865
-7.991845,-8.365341,-7.967903,0.0,49.84076,24.036674,348.0,NaN,2.952,11.0,18.9,14 / 15,119032,2020-03-19 19:53:24:365
-5.942408,-7.666234,-0.253785,0.0,49.84076,24.036674,348.0,NaN,2.952,11.0,18.9,14 / 15,119532,2020-03-19 19:53:24:865
-2.619257,-1.034295,3.160346,0.0,49.84076,24.036674,348.0,NaN,2.952,11.0,18.9,14 / 15,120033,2020-03-19 19:53:25:366
-2.533065,-9.883265,-2.236184,0.0,49.84076,24.036674,348.0,NaN,2.952,11.0,18.9,14 / 15,120533,2020-03-19 19:53:25:866
-2.571372,-1.163582,2.585738,0.0,49.84076,24.036674,348.0,NaN,2.952,11.0,18.9,14 / 15,121033,2020-03-19 19:53:26:366
-4.419696,-7.235277,-0.114922,0.0,49.84076,24.036674,348.0,NaN,2.952,11.0,18.9,14 / 15,121532,2020-03-19 19:53:26:865
-6.809109,-10.031705,-0.948104,0.0,49.84076,24.036674,348.0,NaN,2.952,11.0,18.9,14 / 15,122032,2020-03-19 19:53:27:365
-5.410896,2.236184,1.742979,0.0,49.84076,24.036674,348.0,NaN,2.952,11.0,18.9,14 / 15,122532,2020-03-19 19:53:27:865
-5.286397,-12.612655,-2.15957,0.0,49.84076,24.036674,348.0,NaN,2.952,11.0,18.9,14 / 15,123032,2020-03-19 19:53:28:365
-11.195287,-12.109872,-15.792154,0.0,49.84076,24.036674,348.0,NaN,2.952,11.0,18.9,14 / 15,123532,2020-03-19 19:53:28:865
-4.534618,-7.292738,-0.59855,0.0,49.84076,24.036674,348.0,NaN,2.952,11.0,18.9,14 / 15,124033,2020-03-19 19:53:29:366
-10.97502,-13.618219,-21.265299,0.0,49.84076,24.036674,348.0,NaN,2.952,11.0,18.9,14 / 15,124532,2020-03-19 19:53:29:865
-4.67827,-7.101202,0.684742,0.0,49.84076,24.036674,348.0,NaN,2.952,11.0,18.9,14 / 15,125033,2020-03-19 19:53:30:366
-1.446098,-6.133945,-0.234632,0.0,49.84076,24.036674,348.0,NaN,2.952,11.0,18.9,14 / 15,125533,2020-03-19 19:53:30:866
-2.576161,-8.408437,1.134852,0.0,49.84076,24.036674,348.0,NaN,2.952,11.0,18.9,14 / 15,126033,2020-03-19 19:53:31:366
-15.260642,-11.760319,6.200983,0.0,49.84076,24.036674,348.0,NaN,2.952,11.0,18.9,14 / 15,126532,2020-03-19 19:53:31:865
-12.77546,-12.770672,-7.139509,0.0,49.84076,24.036674,348.0,NaN,2.952,11.0,18.9,14 / 15,127032,2020-03-19 19:53:32:365
-2.882619,-11.305421,0.483629,0.0,49.84076,24.036674,348.0,NaN,2.952,11.0,18.9,14 / 15,127532,2020-03-19 19:53:32:865
-2.619257,-1.824382,1.335965,0.0,49.84076,24.036674,348.0,NaN,2.952,11.0,18.9,14 / 15,128032,2020-03-19 19:53:33:365
-1.264138,-9.753978,-0.23942,0.0,49.84076,24.036674,348.0,NaN,2.952,11.0,18.9,14 / 15,128533,2020-03-19 19:53:33:866
-1.742979,-1.015141,1.886631,0.0,49.84076,24.036674,348.0,NaN,2.952,11.0,18.9,14 / 15,129033,2020-03-19 19:53:34:366
-1.35033,-9.356541,0.158017,0.0,49.84076,24.036674,348.0,NaN,2.952,11.0,18.9,14 / 15,129533,2020-03-19 19:53:34:866
-6.119579,-11.252748,-3.021482,0.0,49.84076,24.036674,348.0,NaN,2.952,11.0,18.9,14 / 15,130032,2020-03-19 19:53:35:365
-6.670246,-14.633361,4.343082,0.0,49.84076,24.036674,348.0,NaN,2.952,11.0,18.9,14 / 15,130532,2020-03-19 19:53:35:865
-5.06613,-15.5671,-4.572925,0.0,49.84076,24.036674,348.0,NaN,2.952,11.0,18.9,14 / 15,131032,2020-03-19 19:53:36:365
-5.559336,-5.96635,-4.82671,0.0,49.84076,24.036674,348.0,NaN,2.952,11.0,18.9,14 / 15,131532,2020-03-19 19:53:36:865
-4.338293,-8.892065,-2.5187,0.0,49.84076,24.036674,348.0,NaN,2.952,11.0,18.9,14 / 15,132032,2020-03-19 19:53:37:365
-1.872266,-0.890643,1.771709,0.0,49.84076,24.036674,348.0,NaN,2.952,11.0,18.9,14 / 15,132532,2020-03-19 19:53:37:865
-3.055001,-9.476251,-0.957681,0.0,49.84076,24.036674,348.0,NaN,2.952,11.0,18.9,14 / 15,133032,2020-03-19 19:53:38:365
-10.563218,-9.974244,-1.024718,0.0,49.84076,24.036674,348.0,NaN,2.952,11.0,18.9,14 / 15,133532,2020-03-19 19:53:38:865
-11.60709,-4.592078,-1.16837,0.0,49.84076,24.036674,348.0,NaN,2.952,11.0,18.9,14 / 15,134032,2020-03-19 19:53:39:365
-15.586253,-8.628703,-2.375048,0.0,49.84076,24.036674,348.0,NaN,2.952,11.0,18.9,14 / 15,134532,2020-03-19 19:53:39:865
-9.126697,6.636728,0.948104,0.0,49.84076,24.036674,348.0,NaN,2.952,11.0,18.9,14 / 15,135033,2020-03-19 19:53:40:366
-5.363012,-10.831368,0.905008,0.0,49.84076,24.036674,348.0,NaN,2.952,11.0,18.9,14 / 15,135533,2020-03-19 19:53:40:866
-5.252878,-7.297527,-9.892841,0.0,49.84076,24.036674,348.0,NaN,2.952,11.0,18.9,14 / 15,136032,2020-03-19 19:53:41:365
-4.113238,-7.297527,1.249773,0.0,49.84076,24.036674,348.0,NaN,2.952,11.0,18.9,14 / 15,136532,2020-03-19 19:53:41:865
-1.35033,-7.733271,0.694319,0.0,49.84076,24.036674,348.0,NaN,2.952,11.0,18.9,14 / 15,137032,2020-03-19 19:53:42:365
-4.687847,-8.159439,-0.967257,0.0,49.84076,24.036674,348.0,NaN,2.952,11.0,18.9,14 / 15,137532,2020-03-19 19:53:42:865
-5.573701,-15.164873,-4.472368,0.0,49.84076,24.036674,348.0,NaN,2.952,11.0,18.9,14 / 15,138032,2020-03-19 19:53:43:365
-5.755661,-15.883134,0.440533,0.0,49.84076,24.036674,348.0,NaN,2.952,11.0,18.9,14 / 15,138532,2020-03-19 19:53:43:865
-2.303222,-15.279796,-2.643199,0.0,49.84076,24.036674,348.0,NaN,2.952,11.0,18.9,14 / 15,139032,2020-03-19 19:53:44:365
-4.639962,-6.200982,-4.548983,0.0,49.84076,24.036674,348.0,NaN,2.952,11.0,18.9,14 / 15,139532,2020-03-19 19:53:44:865
-4.218583,-8.825027,-1.288081,0.0,49.84076,24.036674,348.0,NaN,2.952,11.0,18.9,14 / 15,140032,2020-03-19 19:53:45:365
-3.926491,-1.340753,1.790863,0.0,49.84076,24.036674,348.0,NaN,2.952,11.0,18.9,0 / 0,140532,2020-03-19 19:53:45:865
-3.280056,-7.460332,-0.272939,0.0,49.84076,24.036674,348.0,NaN,2.952,11.0,18.9,0 / 1,141032,2020-03-19 19:53:46:365
-5.0374,-10.702082,-2.331952,0.0,49.84076,24.036674,348.0,NaN,2.952,11.0,18.9,0 / 1,141532,2020-03-19 19:53:46:865
-6.675034,-2.346318,-0.574608,0.0,49.84076,24.036674,348.0,NaN,2.952,11.0,18.9,0 / 3,142032,2020-03-19 19:53:47:365
-7.283161,-9.955091,1.11091,0.0,49.84076,24.036674,348.0,NaN,2.952,11.0,18.9,0 / 3,142532,2020-03-19 19:53:47:865
-2.408567,-3.318364,-2.470816,0.0,49.841965,24.036488,347.0,NaN,5.58,31.0,9.4,9 / 9,143032,2020-03-19 19:53:48:365
-3.05979,-7.627927,-0.277727,0.0,49.841965,24.036488,347.0,NaN,5.58,31.0,9.4,9 / 9,143532,2020-03-19 19:53:48:865
-3.155558,-1.82917,1.910573,0.0,49.841965,24.036488,347.0,NaN,5.58,31.0,9.4,9 / 9,144032,2020-03-19 19:53:49:365
-2.738967,-8.595184,-1.067814,0.0,49.841965,24.036488,347.0,NaN,5.58,31.0,9.4,9 / 9,144533,2020-03-19 19:53:49:866
-10.668563,-11.57836,-0.488417,0.0,49.841965,24.036488,347.0,NaN,5.58,31.0,9.4,9 / 9,145032,2020-03-19 19:53:50:365
-11.15698,4.386178,-4.462792,0.0,49.841965,24.036488,347.0,NaN,5.58,31.0,9.4,9 / 9,145532,2020-03-19 19:53:50:865
-4.094085,-11.152191,0.852336,0.0,49.841965,24.036488,347.0,NaN,5.58,31.0,9.4,9 / 9,146032,2020-03-19 19:53:51:365
-1.752556,-4.745308,-3.854665,0.0,49.841965,24.036488,347.0,NaN,5.58,31.0,9.4,9 / 9,146532,2020-03-19 19:53:51:865
-2.72939,-9.787497,-1.13964,0.0,49.841965,24.036488,347.0,NaN,5.58,31.0,9.4,9 / 9,147032,2020-03-19 19:53:52:365
-7.709329,-9.246407,-2.044648,0.0,49.841965,24.036488,347.0,NaN,5.58,31.0,9.4,9 / 9,147533,2020-03-19 19:53:52:866
-2.700659,-0.153229,3.055001,0.0,49.841965,24.036488,347.0,NaN,5.58,31.0,9.4,9 / 9,148032,2020-03-19 19:53:53:365
-7.354987,-12.804191,-0.454898,0.0,49.841965,24.036488,347.0,NaN,5.58,31.0,9.4,9 / 9,148532,2020-03-19 19:53:53:865
-15.887922,-13.158532,-13.9151,0.0,49.841965,24.036488,347.0,NaN,5.58,31.0,9.4,9 / 9,149032,2020-03-19 19:53:54:365
-2.571372,-12.26789,0.172383,0.0,49.841965,24.036488,347.0,NaN,5.58,31.0,9.4,9 / 9,149532,2020-03-19 19:53:54:865
-2.643199,-0.761356,2.432509,0.0,49.841965,24.036488,347.0,NaN,5.58,31.0,9.4,9 / 9,150032,2020-03-19 19:53:55:365
-2.509123,-9.212888,0.320823,0.0,49.841965,24.036488,347.0,NaN,5.58,31.0,9.4,9 / 9,150532,2020-03-19 19:53:55:865
-7.10599,-9.744401,-0.90022,0.0,49.841965,24.036488,347.0,NaN,5.58,31.0,9.4,9 / 9,151032,2020-03-19 19:53:56:365
-5.439626,-13.67568,2.509123,0.0,49.841965,24.036488,347.0,NaN,5.58,31.0,9.4,9 / 9,151532,2020-03-19 19:53:56:865
-4.821922,-10.395624,1.891419,0.0,49.841965,24.036488,347.0,NaN,5.58,31.0,9.4,9 / 9,152032,2020-03-19 19:53:57:365
-3.902549,-3.787627,-1.594538,0.0,49.841965,24.036488,347.0,NaN,5.58,31.0,9.4,9 / 9,152532,2020-03-19 19:53:57:865
-3.011906,-11.051635,-3.165135,0.0,49.841965,24.036488,347.0,NaN,5.58,31.0,9.4,9 / 9,153032,2020-03-19 19:53:58:365
-4.788403,-2.925714,1.695095,0.0,49.841965,24.036488,347.0,NaN,5.58,31.0,9.4,9 / 9,153532,2020-03-19 19:53:58:865
-7.517793,-5.559336,-1.790863,0.0,49.841965,24.036488,347.0,NaN,5.58,31.0,9.4,9 / 9,154033,2020-03-19 19:53:59:366
-13.637373,-11.27669,5.971139,0.0,49.841965,24.036488,347.0,NaN,5.58,31.0,9.4,9 / 9,154532,2020-03-19 19:53:59:865
-12.909535,-13.340492,-12.454638,0.0,49.841965,24.036488,347.0,NaN,5.58,31.0,9.4,9 / 9,155032,2020-03-19 19:54:00:365
-5.233725,-9.782708,-3.734954,0.0,49.841965,24.036488,347.0,NaN,5.58,31.0,9.4,9 / 9,155532,2020-03-19 19:54:00:865
-1.747767,-1.968034,-0.335188,0.0,49.841965,24.036488,347.0,NaN,5.58,31.0,9.4,9 / 9,156032,2020-03-19 19:54:01:365
-5.559336,-9.064447,-0.948104,0.0,49.841965,24.036488,347.0,NaN,5.58,31.0,9.4,9 / 9,156532,2020-03-19 19:54:01:865
-4.261679,-4.774038,-1.383848,0.0,49.841965,24.036488,347.0,NaN,5.58,31.0,9.4,9 / 9,157032,2020-03-19 19:54:02:365
-6.062118,-5.310339,0.229843,0.0,49.841965,24.036488,347.0,NaN,5.58,31.0,9.4,9 / 9,157532,2020-03-19 19:54:02:865
-8.480263,-11.674128,-6.143522,0.0,49.841965,24.036488,347.0,NaN,5.58,31.0,9.4,9 / 9,158032,2020-03-19 19:54:03:365
-1.297657,-7.311892,-4.831499,0.0,49.841965,24.036488,347.0,NaN,5.58,31.0,9.4,9 / 9,158533,2020-03-19 19:54:03:866
-5.827487,-7.580042,0.641646,0.0,49.841965,24.036488,347.0,NaN,5.58,31.0,9.4,9 / 9,159032,2020-03-19 19:54:04:365
-3.960009,-2.614468,0.80924,0.0,49.841965,24.036488,347.0,NaN,5.58,31.0,9.4,9 / 9,159532,2020-03-19 19:54:04:865
-9.088389,-5.382165,-0.158017,0.0,49.841965,24.036488,347.0,NaN,5.58,31.0,9.4,9 / 9,160032,2020-03-19 19:54:05:365
-14.599842,-11.51611,2.03986,0.0,49.841965,24.036488,347.0,NaN,5.58,31.0,9.4,9 / 9,160533,2020-03-19 19:54:05:866
-5.114014,-3.490746,1.44131,0.0,49.841965,24.036488,347.0,NaN,5.58,31.0,9.4,9 / 9,161032,2020-03-19 19:54:06:365
-6.004657,-10.065224,-0.407014,0.0,49.841965,24.036488,347.0,NaN,5.58,31.0,9.4,9 / 9,161532,2020-03-19 19:54:06:865
-3.246537,-2.42772,1.254562,0.0,49.841965,24.036488,347.0,NaN,5.58,31.0,9.4,9 / 9,162032,2020-03-19 19:54:07:365
-5.252878,-7.838616,0.454898,0.0,49.841965,24.036488,347.0,NaN,5.58,31.0,9.4,9 / 9,162532,2020-03-19 19:54:07:865
-5.032612,-2.671929,-0.148441,0.0,49.841965,24.036488,347.0,NaN,5.58,31.0,9.4,9 / 9,163032,2020-03-19 19:54:08:365
-5.473145,-8.461109,-1.929727,0.0,49.841965,24.036488,347.0,NaN,5.58,31.0,9.4,9 / 9,163532,2020-03-19 19:54:08:865
-7.07726,-9.241618,2.901773,0.0,49.841965,24.036488,347.0,NaN,5.58,31.0,9.4,9 / 9,164032,2020-03-19 19:54:09:365
-16.725893,-7.699753,-3.744531,0.0,49.841965,24.036488,347.0,NaN,5.58,31.0,9.4,9 / 9,164532,2020-03-19 19:54:09:865
-2.614468,-12.076353,-1.312023,0.0,49.841965,24.036488,347.0,NaN,5.58,31.0,9.4,9 / 9,165032,2020-03-19 19:54:10:365
-3.955221,-1.154005,1.47004,0.0,49.841965,24.036488,347.0,NaN,5.58,31.0,9.4,9 / 9,165532,2020-03-19 19:54:10:865
-3.189077,-9.749189,-1.742979,0.0,49.841965,24.036488,347.0,NaN,5.58,31.0,9.4,9 / 9,166032,2020-03-19 19:54:11:365
-6.062118,-2.87783,0.397437,0.0,49.841965,24.036488,347.0,NaN,5.58,31.0,9.4,9 / 9,166532,2020-03-19 19:54:11:865
-9.643845,-4.252102,-2.145205,0.0,49.841965,24.036488,347.0,NaN,5.58,31.0,9.4,9 / 9,167032,2020-03-19 19:54:12:365
-10.898406,-8.27436,0.972046,0.0,49.841965,24.036488,347.0,NaN,5.58,31.0,9.4,9 / 9,167532,2020-03-19 19:54:12:865
-24.296358,-14.250289,-16.577452,0.0,49.841965,24.036488,347.0,NaN,5.58,31.0,9.4,9 / 9,168032,2020-03-19 19:54:13:365
-2.633622,-11.166556,-1.929727,0.0,49.841965,24.036488,347.0,NaN,5.58,31.0,9.4,9 / 9,168532,2020-03-19 19:54:13:865
-2.767697,-1.063026,2.513912,0.0,49.841965,24.036488,347.0,NaN,5.58,31.0,9.4,9 / 9,169032,2020-03-19 19:54:14:365
-3.342306,-8.714894,0.373495,0.0,49.841965,24.036488,347.0,NaN,5.58,31.0,9.4,9 / 9,169532,2020-03-19 19:54:14:865
-8.183381,-8.628703,-2.011129,0.0,49.841965,24.036488,347.0,NaN,5.58,31.0,9.4,9 / 9,170032,2020-03-19 19:54:15:365
-4.707,6.162676,11.27669,0.0,49.841965,24.036488,347.0,NaN,5.58,31.0,9.4,9 / 9,170532,2020-03-19 19:54:15:865
-4.405331,-10.0748,-0.656011,0.0,49.841965,24.036488,347.0,NaN,5.58,31.0,9.4,9 / 9,171032,2020-03-19 19:54:16:365
-4.774038,-1.92015,1.130063,0.0,49.841965,24.036488,347.0,NaN,5.58,31.0,9.4,9 / 9,171532,2020-03-19 19:54:16:865
-4.314351,-7.048529,0.919373,0.0,49.841965,24.036488,347.0,NaN,5.58,31.0,9.4,9 / 9,172032,2020-03-19 19:54:17:365
-4.367024,-3.375824,-0.493206,0.0,49.841965,24.036488,347.0,NaN,5.58,31.0,9.4,9 / 9,172532,2020-03-19 19:54:17:865
-5.449203,-7.005434,-0.92895,0.0,49.841965,24.036488,347.0,NaN,5.58,31.0,9.4,9 / 9,173032,2020-03-19 19:54:18:365
-8.5473,-9.624691,3.136404,0.0,49.841965,24.036488,347.0,NaN,5.58,31.0,9.4,9 / 9,173532,2020-03-19 19:54:18:865
-6.368576,-8.058882,2.154782,0.0,49.841965,24.036488,347.0,NaN,5.58,31.0,9.4,9 / 9,174032,2020-03-19 19:54:19:365
-3.414132,-11.81778,0.78051,0.0,49.841965,24.036488,347.0,NaN,5.58,31.0,9.4,9 / 9,174532,2020-03-19 19:54:19:865
-0.876278,-0.617704,0.842759,0.0,49.841965,24.036488,347.0,NaN,5.58,31.0,9.4,9 / 9,175032,2020-03-19 19:54:20:365
-4.821922,-6.368576,0.215478,0.0,49.841965,24.036488,347.0,NaN,5.58,31.0,9.4,9 / 9,175532,2020-03-19 19:54:20:865
-8.116343,-9.524135,-2.03986,0.0,49.841965,24.036488,347.0,NaN,5.58,31.0,9.4,9 / 9,176032,2020-03-19 19:54:21:365
-5.813122,-8.992621,8.2169,0.0,49.841965,24.036488,347.0,NaN,5.58,31.0,9.4,9 / 9,176532,2020-03-19 19:54:21:865
-8.413225,-8.801085,2.604892,0.0,49.841965,24.036488,347.0,NaN,5.58,31.0,9.4,9 / 9,177032,2020-03-19 19:54:22:365
-6.483498,-8.63828,-8.341399,0.0,49.841965,24.036488,347.0,NaN,5.58,31.0,9.4,9 / 9,177532,2020-03-19 19:54:22:865
-6.799533,-6.813898,-0.325611,0.0,49.841965,24.036488,347.0,NaN,5.58,31.0,9.4,9 / 9,178032,2020-03-19 19:54:23:365
-3.720589,-5.93762,-2.39899,0.0,49.841965,24.036488,347.0,NaN,5.58,31.0,9.4,9 / 9,178532,2020-03-19 19:54:23:865
-6.110002,-8.437167,0.383072,0.0,49.841965,24.036488,347.0,NaN,5.58,31.0,9.4,9 / 9,179032,2020-03-19 19:54:24:365
-5.482722,-15.461755,-3.016694,0.0,49.841965,24.036488,347.0,NaN,5.58,31.0,9.4,9 / 9,179532,2020-03-19 19:54:24:865
-5.33907,-10.682928,-10.180145,0.0,49.841965,24.036488,347.0,NaN,5.58,31.0,9.4,9 / 9,180032,2020-03-19 19:54:25:365
-5.951985,-6.560112,-0.617704,0.0,49.841965,24.036488,347.0,NaN,5.58,31.0,9.4,9 / 9,180532,2020-03-19 19:54:25:865
-8.010998,-11.659762,-16.85518,0.0,49.841965,24.036488,347.0,NaN,5.58,31.0,9.4,9 / 9,181032,2020-03-19 19:54:26:365
-3.964798,-7.082048,-0.986411,0.0,49.841965,24.036488,347.0,NaN,5.58,31.0,9.4,9 / 9,181532,2020-03-19 19:54:26:865
-4.898536,-9.682152,-1.819593,0.0,49.841965,24.036488,347.0,NaN,5.58,31.0,9.4,9 / 9,182032,2020-03-19 19:54:27:365
-4.022259,-15.524004,-0.876278,0.0,49.841965,24.036488,347.0,NaN,5.58,31.0,9.4,9 / 9,182532,2020-03-19 19:54:27:865
-6.742072,-13.972561,-2.619257,0.0,49.841965,24.036488,347.0,NaN,5.58,31.0,9.4,9 / 9,183032,2020-03-19 19:54:28:365
-6.445191,-10.25676,-11.496957,0.0,49.841965,24.036488,347.0,NaN,5.58,31.0,9.4,9 / 9,183532,2020-03-19 19:54:28:865
-4.194641,-7.374141,1.862689,0.0,49.841965,24.036488,347.0,NaN,5.58,31.0,9.4,9 / 9,184032,2020-03-19 19:54:29:365
-2.418144,-10.448297,-2.379836,0.0,49.841965,24.036488,347.0,NaN,5.58,31.0,9.4,9 / 9,184533,2020-03-19 19:54:29:866
-3.227384,-7.024587,-0.871489,0.0,49.841965,24.036488,347.0,NaN,5.58,31.0,9.4,9 / 9,185032,2020-03-19 19:54:30:365
-11.468226,-10.769119,-1.819593,0.0,49.841965,24.036488,347.0,NaN,5.58,31.0,9.4,9 / 9,185532,2020-03-19 19:54:30:865
-4.400542,1.307234,6.05733,0.0,49.841965,24.036488,347.0,NaN,5.58,31.0,9.4,9 / 9,186032,2020-03-19 19:54:31:365
-7.493851,-9.476251,-0.842759,0.0,49.841965,24.036488,347.0,NaN,5.58,31.0,9.4,9 / 9,186532,2020-03-19 19:54:31:865
-2.1883,-1.345541,1.867477,0.0,49.841965,24.036488,347.0,NaN,5.58,31.0,9.4,9 / 9,187032,2020-03-19 19:54:32:365
-2.705448,-10.429143,0.531513,0.0,49.841965,24.036488,347.0,NaN,5.58,31.0,9.4,9 / 9,187532,2020-03-19 19:54:32:865
-14.96376,-12.694057,2.106898,0.0,49.841965,24.036488,347.0,NaN,5.58,31.0,9.4,9 / 9,188032,2020-03-19 19:54:33:365
-3.184288,0.445322,4.472369,0.0,49.841965,24.036488,347.0,NaN,5.58,31.0,9.4,9 / 9,188532,2020-03-19 19:54:33:865
-6.502651,-10.79785,-0.287304,0.0,49.841965,24.036488,347.0,NaN,5.58,31.0,9.4,9 / 9,189032,2020-03-19 19:54:34:365
-2.336741,-0.612916,-3.600879,0.0,49.841965,24.036488,347.0,NaN,5.58,31.0,9.4,9 / 9,189533,2020-03-19 19:54:34:866
-5.645528,-7.752425,1.096544,0.0,49.841965,24.036488,347.0,NaN,5.58,31.0,9.4,9 / 9,190032,2020-03-19 19:54:35:365
-4.223372,-3.078943,1.517924,0.0,49.841965,24.036488,347.0,NaN,5.58,31.0,9.4,9 / 9,190532,2020-03-19 19:54:35:865
-7.465121,-5.540182,-0.306458,0.0,49.841965,24.036488,347.0,NaN,5.58,31.0,9.4,9 / 9,191032,2020-03-19 19:54:36:365
-5.166687,-13.278243,-5.051765,0.0,49.841965,24.036488,347.0,NaN,5.58,31.0,9.4,9 / 9,191532,2020-03-19 19:54:36:865
-1.94888,-5.573701,-7.747637,0.0,49.841965,24.036488,347.0,NaN,5.58,31.0,9.4,9 / 9,192032,2020-03-19 19:54:37:365
-5.334281,-7.517793,-0.301669,0.0,49.841965,24.036488,347.0,NaN,5.58,31.0,9.4,9 / 9,192532,2020-03-19 19:54:37:865
-5.750872,-7.374141,-14.231135,0.0,49.841965,24.036488,347.0,NaN,5.58,31.0,9.4,9 / 9,193032,2020-03-19 19:54:38:365
-4.232949,-7.268796,-0.828394,0.0,49.841965,24.036488,347.0,NaN,5.58,31.0,9.4,9 / 9,193532,2020-03-19 19:54:38:865
-1.877054,-11.113884,-2.044648,0.0,49.841965,24.036488,347.0,NaN,5.58,31.0,9.4,9 / 9,194032,2020-03-19 19:54:39:365
-6.560112,-16.903065,-9.064447,0.0,49.841965,24.036488,347.0,NaN,5.58,31.0,9.4,9 / 9,194532,2020-03-19 19:54:39:865
-3.136404,-14.355634,-2.135628,0.0,49.841965,24.036488,347.0,NaN,5.58,31.0,9.4,9 / 9,195032,2020-03-19 19:54:40:365
-5.530606,-9.32781,-13.757083,0.0,49.841965,24.036488,347.0,NaN,5.58,31.0,9.4,9 / 9,195533,2020-03-19 19:54:40:866
-4.276044,-7.484274,0.129287,0.0,49.841965,24.036488,347.0,NaN,5.58,31.0,9.4,9 / 9,196033,2020-03-19 19:54:41:366
-1.426944,-10.510546,-1.072602,0.0,49.841965,24.036488,347.0,NaN,5.58,31.0,9.4,9 / 9,196533,2020-03-19 19:54:41:866
-3.849876,-7.613561,-0.474052,0.0,49.841965,24.036488,347.0,NaN,5.58,31.0,9.4,9 / 9,197032,2020-03-19 19:54:42:365
-7.244854,-8.030152,-3.232172,0.0,49.841965,24.036488,347.0,NaN,5.58,31.0,9.4,9 / 9,197532,2020-03-19 19:54:42:865
-5.468356,1.144428,-9.255983,0.0,49.841965,24.036488,347.0,NaN,5.58,31.0,9.4,0 / 0,198032,2020-03-19 19:54:43:365
-7.881712,-10.730812,-2.15957,0.0,49.841965,24.036488,347.0,NaN,5.58,31.0,9.4,0 / 0,198532,2020-03-19 19:54:43:865
-1.82917,-2.260126,-0.392649,0.0,49.841965,24.036488,347.0,NaN,5.58,31.0,9.4,0 / 1,199033,2020-03-19 19:54:44:366
-2.614468,-8.255207,-1.221043,0.0,49.841965,24.036488,347.0,NaN,5.58,31.0,9.4,0 / 1,199532,2020-03-19 19:54:44:865
-8.628703,-10.026917,-2.087744,0.0,49.841965,24.036488,347.0,NaN,5.58,31.0,9.4,0 / 5,200032,2020-03-19 19:54:45:365
-5.712565,-15.98369,-8.135497,0.0,49.841965,24.036488,347.0,NaN,5.58,31.0,9.4,0 / 5,200532,2020-03-19 19:54:45:865
-5.741296,-13.939042,-2.5187,0.0,49.841965,24.036488,347.0,NaN,5.58,31.0,9.4,0 / 6,201032,2020-03-19 19:54:46:365
-5.401319,-10.548853,-15.002068,0.0,49.841965,24.036488,347.0,NaN,5.58,31.0,9.4,0 / 6,201532,2020-03-19 19:54:46:865
-3.260903,-7.671022,1.489194,0.0,49.841965,24.036488,347.0,NaN,5.58,31.0,9.4,0 / 7,202032,2020-03-19 19:54:47:365
-3.045424,-3.701436,-0.881066,0.0,49.841965,24.036488,347.0,NaN,5.58,31.0,9.4,0 / 7,202533,2020-03-19 19:54:47:866
-4.88896,-7.508216,-1.40779,0.0,49.841965,24.036488,347.0,NaN,5.58,31.0,9.4,0 / 8,203032,2020-03-19 19:54:48:365
-7.934384,-10.927136,-2.202665,0.0,49.841965,24.036488,347.0,NaN,5.58,31.0,9.4,0 / 8,203532,2020-03-19 19:54:48:865
-5.176264,-14.537593,-3.438074,0.0,49.841965,24.036488,347.0,NaN,5.58,31.0,9.4,0 / 13,204032,2020-03-19 19:54:49:365
-6.234501,-13.919888,-4.122815,0.0,49.841965,24.036488,347.0,NaN,5.58,31.0,9.4,0 / 13,204532,2020-03-19 19:54:49:865
-6.904877,-3.256114,-8.073248,0.0,49.841965,24.036488,347.0,NaN,5.58,31.0,9.4,0 / 17,205032,2020-03-19 19:54:50:365
-6.488286,-7.000645,-1.695095,0.0,49.841965,24.036488,347.0,NaN,5.58,31.0,9.4,0 / 17,205533,2020-03-19 19:54:50:866
-3.567361,-1.47004,1.503559,0.0,49.842136,24.037615,355.0,NaN,3.528,27.0,0.0,10 / 17,206033,2020-03-19 19:54:51:366
-9.102755,-4.936844,-1.446098,0.0,49.842136,24.037615,355.0,NaN,3.528,27.0,0.0,10 / 17,206533,2020-03-19 19:54:51:866
-14.489709,-13.053187,3.452439,0.0,49.842136,24.037615,355.0,NaN,3.528,27.0,0.0,10 / 17,207033,2020-03-19 19:54:52:366
-8.374918,2.389413,-6.71813,0.0,49.842136,24.037615,355.0,NaN,3.528,27.0,0.0,10 / 17,207533,2020-03-19 19:54:52:866
-2.75812,-14.312538,-2.245761,0.0,49.842136,24.037615,355.0,NaN,3.528,27.0,0.0,10 / 17,208032,2020-03-19 19:54:53:365
-9.916783,-13.52724,-18.77533,0.0,49.842136,24.037615,355.0,NaN,3.528,27.0,0.0,10 / 17,208532,2020-03-19 19:54:53:865
-5.085284,-8.317456,0.407014,0.0,49.842136,24.037615,355.0,NaN,3.528,27.0,0.0,10 / 17,209032,2020-03-19 19:54:54:365
-8.370129,-10.773908,-18.847157,0.0,49.842136,24.037615,355.0,NaN,3.528,27.0,0.0,10 / 17,209532,2020-03-19 19:54:54:865
-4.031835,-7.522581,1.599327,0.0,49.842136,24.037615,355.0,NaN,3.528,27.0,0.0,10 / 17,210032,2020-03-19 19:54:55:365
-1.68073,-8.350976,-1.072602,0.0,49.842136,24.037615,355.0,NaN,3.528,27.0,0.0,10 / 17,210532,2020-03-19 19:54:55:865
-3.667917,-13.249513,-4.141969,0.0,49.842136,24.037615,355.0,NaN,3.528,27.0,0.0,10 / 17,211032,2020-03-19 19:54:56:365
-9.169792,-11.506534,-5.080496,0.0,49.842136,24.037615,355.0,NaN,3.528,27.0,0.0,10 / 17,211532,2020-03-19 19:54:56:865
-0.229843,-4.61602,-5.645528,0.0,49.842136,24.037615,355.0,NaN,3.528,27.0,0.0,10 / 17,212032,2020-03-19 19:54:57:365
-6.009446,-8.221688,1.154005,0.0,49.842136,24.037615,355.0,NaN,3.528,27.0,0.0,10 / 17,212532,2020-03-19 19:54:57:865
-3.102885,-1.982399,1.086968,0.0,49.842136,24.037615,355.0,NaN,3.528,27.0,0.0,10 / 17,213032,2020-03-19 19:54:58:365
-7.297527,-5.501875,1.307234,0.0,49.842136,24.037615,355.0,NaN,3.528,27.0,0.0,10 / 17,213532,2020-03-19 19:54:58:865
-0.794875,-10.769119,-1.249773,0.0,49.842136,24.037615,355.0,NaN,3.528,27.0,0.0,10 / 17,214032,2020-03-19 19:54:59:365
-4.419696,-15.428236,-4.596867,0.0,49.842136,24.037615,355.0,NaN,3.528,27.0,0.0,10 / 17,214533,2020-03-19 19:54:59:866
-3.821146,-12.411542,-1.939303,0.0,49.842136,24.037615,355.0,NaN,3.528,27.0,0.0,10 / 17,215032,2020-03-19 19:55:00:365
-6.789956,-10.697293,-16.419436,0.0,49.842136,24.037615,355.0,NaN,3.528,27.0,0.0,10 / 17,215532,2020-03-19 19:55:00:865
-4.999093,-7.024587,-0.086191,0.0,49.842136,24.037615,355.0,NaN,3.528,27.0,0.0,10 / 17,216032,2020-03-19 19:55:01:365
-1.94888,-9.399636,-0.938527,0.0,49.842136,24.037615,355.0,NaN,3.528,27.0,0.0,10 / 17,216532,2020-03-19 19:55:01:865
-3.830723,-12.272678,-4.577713,0.0,49.842136,24.037615,355.0,NaN,3.528,27.0,0.0,10 / 17,217032,2020-03-19 19:55:02:365
-5.415684,-13.967772,-3.926491,0.0,49.842136,24.037615,355.0,NaN,3.528,27.0,0.0,10 / 17,217532,2020-03-19 19:55:02:865
-2.892196,-8.504205,-6.770802,0.0,49.842136,24.037615,355.0,NaN,3.528,27.0,0.0,10 / 17,218032,2020-03-19 19:55:03:365
-5.755661,-6.895301,0.316035,0.0,49.842136,24.037615,355.0,NaN,3.528,27.0,0.0,10 / 17,218532,2020-03-19 19:55:03:865
-8.595184,-10.199299,-16.931795,0.0,49.842136,24.037615,355.0,NaN,3.528,27.0,0.0,10 / 17,219032,2020-03-19 19:55:04:365
-3.960009,-7.422025,2.025495,0.0,49.842136,24.037615,355.0,NaN,3.528,27.0,0.0,10 / 17,219532,2020-03-19 19:55:04:865
-2.48997,-4.22816,-0.818817,0.0,49.842136,24.037615,355.0,NaN,3.528,27.0,0.0,10 / 17,220032,2020-03-19 19:55:05:365
-7.019799,-5.947197,0.574608,0.0,49.842136,24.037615,355.0,NaN,3.528,27.0,0.0,10 / 17,220532,2020-03-19 19:55:05:865
-7.623138,-10.630256,-4.606444,0.0,49.842136,24.037615,355.0,NaN,3.528,27.0,0.0,10 / 17,221032,2020-03-19 19:55:06:365
-4.165911,-8.303091,-10.850522,0.0,49.842136,24.037615,355.0,NaN,3.528,27.0,0.0,10 / 17,221532,2020-03-19 19:55:06:865
-2.930503,-10.342952,-1.805228,0.0,49.842136,24.037615,355.0,NaN,3.528,27.0,0.0,10 / 17,222032,2020-03-19 19:55:07:365
-3.821146,-0.952892,2.126051,0.0,49.842136,24.037615,355.0,NaN,3.528,27.0,0.0,10 / 17,222532,2020-03-19 19:55:07:865
-5.995081,-7.383718,-1.158794,0.0,49.842136,24.037615,355.0,NaN,3.528,27.0,0.0,10 / 17,223032,2020-03-19 19:55:08:365
-2.791639,-3.189077,0.622492,0.0,49.842136,24.037615,355.0,NaN,3.528,27.0,0.0,10 / 17,223532,2020-03-19 19:55:08:865
-8.092401,-5.626374,-1.934515,0.0,49.842136,24.037615,355.0,NaN,3.528,27.0,0.0,10 / 17,224032,2020-03-19 19:55:09:365
-16.31409,-12.559982,4.97994,0.0,49.842136,24.037615,355.0,NaN,3.528,27.0,0.0,10 / 17,224532,2020-03-19 19:55:09:865
-1.149217,5.396531,10.036493,0.0,49.842136,24.037615,355.0,NaN,3.528,27.0,0.0,10 / 17,225032,2020-03-19 19:55:10:365
-6.564901,-11.429919,-1.944092,0.0,49.842136,24.037615,355.0,NaN,3.528,27.0,0.0,10 / 17,225532,2020-03-19 19:55:10:865
-2.255338,-3.620033,-2.791639,0.0,49.842136,24.037615,355.0,NaN,3.528,27.0,0.0,10 / 17,226033,2020-03-19 19:55:11:366
-3.102885,-6.95755,-1.814805,0.0,49.842136,24.037615,355.0,NaN,3.528,27.0,0.0,10 / 17,226532,2020-03-19 19:55:11:865
-4.548983,-9.749189,-2.633622,0.0,49.842136,24.037615,355.0,NaN,3.528,27.0,0.0,10 / 17,227032,2020-03-19 19:55:12:365
-9.198523,-14.733917,-7.072471,0.0,49.842136,24.037615,355.0,NaN,3.528,27.0,0.0,10 / 17,227532,2020-03-19 19:55:12:865
-4.395754,-13.685257,-0.972046,0.0,49.842136,24.037615,355.0,NaN,3.528,27.0,0.0,10 / 17,228032,2020-03-19 19:55:13:365
-10.175357,-13.230358,-5.114014,0.0,49.842136,24.037615,355.0,NaN,3.528,27.0,0.0,10 / 17,228532,2020-03-19 19:55:13:865
-7.024587,-8.863335,-4.185065,0.0,49.842136,24.037615,355.0,NaN,3.528,27.0,0.0,10 / 17,229032,2020-03-19 19:55:14:365
-4.869806,-2.087744,1.522712,0.0,49.842136,24.037615,355.0,NaN,3.528,27.0,0.0,10 / 17,229532,2020-03-19 19:55:14:865
-7.814674,-7.996633,-1.613692,0.0,49.842136,24.037615,355.0,NaN,3.528,27.0,0.0,10 / 17,230032,2020-03-19 19:55:15:365
-8.911219,-10.146626,5.406108,0.0,49.842136,24.037615,355.0,NaN,3.528,27.0,0.0,10 / 17,230532,2020-03-19 19:55:15:865
-13.603854,-12.574347,-14.101848,0.0,49.842136,24.037615,355.0,NaN,3.528,27.0,0.0,10 / 17,231032,2020-03-19 19:55:16:365
-4.189853,-9.543288,-3.854665,0.0,49.842136,24.037615,355.0,NaN,3.528,27.0,0.0,10 / 17,231532,2020-03-19 19:55:16:865
-3.131616,-2.087744,1.575385,0.0,49.842136,24.037615,355.0,NaN,3.528,27.0,0.0,10 / 17,232032,2020-03-19 19:55:17:365
-4.716577,-7.10599,1.154005,0.0,49.842136,24.037615,355.0,NaN,3.528,27.0,0.0,10 / 17,232532,2020-03-19 19:55:17:865
-2.149993,-5.535394,-0.761356,0.0,49.842136,24.037615,355.0,NaN,3.528,27.0,0.0,10 / 17,233032,2020-03-19 19:55:18:365
-6.272808,-7.072471,0.354342,0.0,49.842136,24.037615,355.0,NaN,3.528,27.0,0.0,10 / 17,233532,2020-03-19 19:55:18:865
-6.344634,-10.534488,-4.644751,0.0,49.842136,24.037615,355.0,NaN,3.528,27.0,0.0,10 / 17,234032,2020-03-19 19:55:19:365
-1.733402,-4.764461,-4.903325,0.0,49.842136,24.037615,355.0,NaN,3.528,27.0,0.0,10 / 17,234533,2020-03-19 19:55:19:866
-5.147533,-8.030152,0.665588,0.0,49.842136,24.037615,355.0,NaN,3.528,27.0,0.0,10 / 17,235033,2020-03-19 19:55:20:366
-2.456451,-1.412579,0.986411,0.0,49.842136,24.037615,355.0,NaN,3.528,27.0,0.0,10 / 17,235533,2020-03-19 19:55:20:866
-8.207323,-4.759673,-0.617704,0.0,49.842136,24.037615,355.0,NaN,3.528,27.0,0.0,10 / 17,236033,2020-03-19 19:55:21:366
-6.785167,-11.013328,-4.371812,0.0,49.842136,24.037615,355.0,NaN,3.528,27.0,0.0,10 / 17,236532,2020-03-19 19:55:21:865
-4.10845,-13.220781,-5.956774,0.0,49.842136,24.037615,355.0,NaN,3.528,27.0,0.0,10 / 17,237032,2020-03-19 19:55:22:365
-5.056554,-12.282255,-2.528277,0.0,49.842136,24.037615,355.0,NaN,3.528,27.0,0.0,10 / 17,237532,2020-03-19 19:55:22:865
-6.785167,-10.726024,-14.561535,0.0,49.842136,24.037615,355.0,NaN,3.528,27.0,0.0,10 / 17,238032,2020-03-19 19:55:23:365
-4.505887,-7.829039,0.981623,0.0,49.842136,24.037615,355.0,NaN,3.528,27.0,0.0,10 / 17,238532,2020-03-19 19:55:23:865
-2.092532,-9.059659,-1.288081,0.0,49.842136,24.037615,355.0,NaN,3.528,27.0,0.0,10 / 17,239033,2020-03-19 19:55:24:366
-4.596867,-15.47612,-7.149086,0.0,49.842136,24.037615,355.0,NaN,3.528,27.0,0.0,10 / 17,239532,2020-03-19 19:55:24:865
-3.260903,-14.551958,-1.278504,0.0,49.842136,24.037615,355.0,NaN,3.528,27.0,0.0,10 / 17,240032,2020-03-19 19:55:25:365
-5.549759,-9.65821,-14.623784,0.0,49.842136,24.037615,355.0,NaN,3.528,27.0,0.0,10 / 17,240532,2020-03-19 19:55:25:865
-5.185841,-6.521805,0.502782,0.0,49.842136,24.037615,355.0,NaN,3.528,27.0,0.0,10 / 17,241032,2020-03-19 19:55:26:365
-1.92015,-8.183381,-1.11091,0.0,49.842136,24.037615,355.0,NaN,3.528,27.0,0.0,10 / 17,241532,2020-03-19 19:55:26:865
-1.958457,-9.303867,-0.493206,0.0,49.842136,24.037615,355.0,NaN,3.528,27.0,0.0,10 / 17,242032,2020-03-19 19:55:27:365
-8.825027,-9.758766,-1.838747,0.0,49.842136,24.037615,355.0,NaN,3.528,27.0,0.0,10 / 17,242532,2020-03-19 19:55:27:865
-1.335964,10.726024,10.998962,0.0,49.842136,24.037615,355.0,NaN,3.528,27.0,0.0,10 / 17,243032,2020-03-19 19:55:28:365
-4.912902,-9.543288,-0.134075,0.0,49.842136,24.037615,355.0,NaN,3.528,27.0,0.0,10 / 17,243532,2020-03-19 19:55:28:865
-2.260126,-7.000645,-6.287173,0.0,49.842136,24.037615,355.0,NaN,3.528,27.0,0.0,10 / 17,244032,2020-03-19 19:55:29:365
-4.529829,-8.916007,-0.378284,0.0,49.842136,24.037615,355.0,NaN,3.528,27.0,0.0,10 / 17,244532,2020-03-19 19:55:29:865
-12.842498,-11.027693,-1.25935,0.0,49.842136,24.037615,355.0,NaN,3.528,27.0,0.0,10 / 17,245032,2020-03-19 19:55:30:365
-1.704672,2.389413,4.180277,0.0,49.842136,24.037615,355.0,NaN,3.528,27.0,0.0,10 / 17,245532,2020-03-19 19:55:30:865
-5.430049,-12.641385,-0.746991,0.0,49.842136,24.037615,355.0,NaN,3.528,27.0,0.0,10 / 17,246032,2020-03-19 19:55:31:365
-1.580173,-2.39899,-1.264138,0.0,49.842136,24.037615,355.0,NaN,3.528,27.0,0.0,10 / 17,246532,2020-03-19 19:55:31:865
-4.79798,-10.7356,-2.169147,0.0,49.842136,24.037615,355.0,NaN,3.528,27.0,0.0,10 / 17,247032,2020-03-19 19:55:32:365
-3.916914,-1.752556,1.939303,0.0,49.842136,24.037615,355.0,NaN,3.528,27.0,0.0,10 / 17,247533,2020-03-19 19:55:32:866
-5.061342,-9.23683,-0.512359,0.0,49.842136,24.037615,355.0,NaN,3.528,27.0,0.0,10 / 17,248032,2020-03-19 19:55:33:365
-15.725117,-11.889606,5.046977,0.0,49.842136,24.037615,355.0,NaN,3.528,27.0,0.0,10 / 17,248532,2020-03-19 19:55:33:865
-14.355634,-4.443638,-0.703895,0.0,49.842136,24.037615,355.0,NaN,3.528,27.0,0.0,10 / 17,249032,2020-03-19 19:55:34:365
-3.246537,-11.664551,-0.296881,0.0,49.842136,24.037615,355.0,NaN,3.528,27.0,0.0,10 / 17,249532,2020-03-19 19:55:34:865
-5.3678,-0.641646,2.96881,0.0,49.842136,24.037615,355.0,NaN,3.528,27.0,0.0,10 / 17,250032,2020-03-19 19:55:35:365
-3.217807,-10.654198,-0.009577,0.0,49.842136,24.037615,355.0,NaN,3.528,27.0,0.0,10 / 17,250532,2020-03-19 19:55:35:865
-13.120225,-12.555194,1.661576,0.0,49.842136,24.037615,355.0,NaN,3.528,27.0,0.0,10 / 17,251032,2020-03-19 19:55:36:365
-18.013973,-12.923901,-7.292738,0.0,49.842136,24.037615,355.0,NaN,3.528,27.0,0.0,10 / 17,251532,2020-03-19 19:55:36:865
-5.808333,-12.157756,-0.814029,0.0,49.842136,24.037615,355.0,NaN,3.528,27.0,0.0,10 / 17,252032,2020-03-19 19:55:37:365
-1.92015,-2.964022,-2.810793,0.0,49.842136,24.037615,355.0,NaN,3.528,27.0,0.0,10 / 17,252532,2020-03-19 19:55:37:865
-3.246537,-7.230489,-1.029507,0.0,49.842136,24.037615,355.0,NaN,3.528,27.0,0.0,10 / 17,253032,2020-03-19 19:55:38:365
-5.267244,-2.39899,1.939303,0.0,49.842136,24.037615,355.0,NaN,3.528,27.0,0.0,10 / 17,253532,2020-03-19 19:55:38:865
-7.757213,-5.137956,-1.968034,0.0,49.842136,24.037615,355.0,NaN,3.528,27.0,0.0,10 / 17,254032,2020-03-19 19:55:39:365
-15.710752,-12.339716,5.889736,0.0,49.842136,24.037615,355.0,NaN,3.528,27.0,0.0,10 / 17,254532,2020-03-19 19:55:39:865
-3.816357,8.125921,10.515334,0.0,49.842136,24.037615,355.0,NaN,3.528,27.0,0.0,10 / 17,255032,2020-03-19 19:55:40:365
-4.481945,-12.981361,-0.09098,0.0,49.842136,24.037615,355.0,NaN,3.528,27.0,0.0,10 / 17,255532,2020-03-19 19:55:40:865
-4.333505,-7.872135,-14.642938,0.0,49.842136,24.037615,355.0,NaN,3.528,27.0,0.0,10 / 17,256032,2020-03-19 19:55:41:365
-4.276044,-6.856993,-0.272939,0.0,49.842136,24.037615,355.0,NaN,3.528,27.0,0.0,10 / 17,256532,2020-03-19 19:55:41:865
-3.189077,-10.271125,-2.006341,0.0,49.842136,24.037615,355.0,NaN,3.528,27.0,0.0,10 / 17,257032,2020-03-19 19:55:42:365
-6.809109,-17.683575,-9.653421,0.0,49.842136,24.037615,355.0,NaN,3.528,27.0,0.0,10 / 17,257532,2020-03-19 19:55:42:865
-5.430049,-13.374011,-3.098097,0.0,49.842136,24.037615,355.0,NaN,3.528,27.0,0.0,10 / 17,258032,2020-03-19 19:55:43:365
-7.024587,-8.633492,-13.575124,0.0,49.842136,24.037615,355.0,NaN,3.528,27.0,0.0,10 / 17,258532,2020-03-19 19:55:43:865
-5.813122,-12.631808,1.44131,0.0,49.842136,24.037615,355.0,NaN,3.528,27.0,0.0,10 / 17,259033,2020-03-19 19:55:44:366
-3.222595,-6.110002,-13.326127,0.0,49.842136,24.037615,355.0,NaN,3.528,27.0,0.0,10 / 17,259533,2020-03-19 19:55:44:866
-4.060566,-6.023811,-0.09098,0.0,49.842136,24.037615,355.0,NaN,3.528,27.0,0.0,10 / 17,260032,2020-03-19 19:55:45:365
-1.728614,-9.763555,-1.637634,0.0,49.842136,24.037615,355.0,NaN,3.528,27.0,0.0,10 / 17,260532,2020-03-19 19:55:45:865
-2.293645,-14.235924,-6.114791,0.0,49.842136,24.037615,355.0,NaN,3.528,27.0,0.0,10 / 17,261032,2020-03-19 19:55:46:365
-8.432379,-14.264654,-3.112462,0.0,49.842136,24.037615,355.0,NaN,3.528,27.0,0.0,10 / 17,261532,2020-03-19 19:55:46:865
-6.483498,-9.203311,-15.059528,0.0,49.842136,24.037615,355.0,NaN,3.528,27.0,0.0,10 / 17,262032,2020-03-19 19:55:47:365
-4.19943,-8.121132,1.000776,0.0,49.842136,24.037615,355.0,NaN,3.528,27.0,0.0,10 / 17,262532,2020-03-19 19:55:47:865
-2.528277,-2.796427,-3.581726,0.0,49.842136,24.037615,355.0,NaN,3.528,27.0,0.0,10 / 17,263033,2020-03-19 19:55:48:366
-3.854665,-7.809886,-0.833182,0.0,49.842136,24.037615,355.0,NaN,3.528,27.0,0.0,10 / 17,263532,2020-03-19 19:55:48:865
-4.908113,-10.749966,-2.647987,0.0,49.842136,24.037615,355.0,NaN,3.528,27.0,0.0,10 / 17,264032,2020-03-19 19:55:49:365
-3.811569,-15.547946,-0.746991,0.0,49.842136,24.037615,355.0,NaN,3.528,27.0,0.0,10 / 17,264532,2020-03-19 19:55:49:865
-5.33907,-12.531252,-0.732626,0.0,49.842136,24.037615,355.0,NaN,3.528,27.0,0.0,10 / 17,265032,2020-03-19 19:55:50:365
-5.214571,-6.722918,-13.752295,0.0,49.842136,24.037615,355.0,NaN,3.528,27.0,0.0,10 / 17,265532,2020-03-19 19:55:50:865
-3.404555,-7.479486,-0.952892,0.0,49.842136,24.037615,355.0,NaN,3.528,27.0,0.0,10 / 17,266032,2020-03-19 19:55:51:365
-8.312668,-11.305421,-1.173159,0.0,49.842136,24.037615,355.0,NaN,3.528,27.0,0.0,10 / 17,266532,2020-03-19 19:55:51:865
-9.212888,-5.477933,-1.063026,0.0,49.842136,24.037615,355.0,NaN,3.528,27.0,0.0,10 / 17,267032,2020-03-19 19:55:52:365
-7.752425,-10.764331,1.484405,0.0,49.842136,24.037615,355.0,NaN,3.528,27.0,0.0,10 / 17,267532,2020-03-19 19:55:52:865
-10.879252,-6.914454,-10.951078,0.0,49.842136,24.037615,355.0,NaN,3.528,27.0,0.0,0 / 0,268032,2020-03-19 19:55:53:365
-6.95755,-7.350199,-2.274491,0.0,49.842136,24.037615,355.0,NaN,3.528,27.0,0.0,0 / 0,268532,2020-03-19 19:55:53:865
-4.141969,-1.944092,1.742979,0.0,49.842136,24.037615,355.0,NaN,3.528,27.0,0.0,0 / 3,269032,2020-03-19 19:55:54:365
-7.651869,-5.995081,-2.255338,0.0,49.842136,24.037615,355.0,NaN,3.528,27.0,0.0,0 / 3,269532,2020-03-19 19:55:54:865
-10.242394,-9.983821,-1.120486,0.0,49.842136,24.037615,355.0,NaN,3.528,27.0,0.0,0 / 6,270032,2020-03-19 19:55:55:365
-11.358093,0.694319,6.588843,0.0,49.842136,24.037615,355.0,NaN,3.528,27.0,0.0,0 / 6,270532,2020-03-19 19:55:55:865
-6.670246,-10.25676,-0.512359,0.0,49.842136,24.037615,355.0,NaN,3.528,27.0,0.0,0 / 7,271032,2020-03-19 19:55:56:365
-8.925584,-10.04607,-15.887922,0.0,49.842136,24.037615,355.0,NaN,3.528,27.0,0.0,0 / 7,271532,2020-03-19 19:55:56:865
-4.841076,-7.177817,1.053449,0.0,49.842354,24.038883,354.0,NaN,2.916,14.0,0.0,13 / 13,272032,2020-03-19 19:55:57:365
-0.579397,-3.074155,-5.032612,0.0,49.842354,24.038883,354.0,NaN,2.916,14.0,0.0,13 / 13,272532,2020-03-19 19:55:57:865
-2.825158,-8.001422,-3.356671,0.0,49.842354,24.038883,354.0,NaN,2.916,14.0,0.0,13 / 13,273032,2020-03-19 19:55:58:365
-5.410896,-9.797073,-2.614468,0.0,49.842354,24.038883,354.0,NaN,2.916,14.0,0.0,13 / 13,273533,2020-03-19 19:55:58:866
-5.023035,-16.342821,-7.369353,0.0,49.842354,24.038883,354.0,NaN,2.916,14.0,0.0,13 / 13,274033,2020-03-19 19:55:59:366
-7.359776,-13.551182,-3.543418,0.0,49.842354,24.038883,354.0,NaN,2.916,14.0,0.0,13 / 13,274532,2020-03-19 19:55:59:865
-4.094085,-8.810662,-11.702858,0.0,49.842354,24.038883,354.0,NaN,2.916,14.0,0.0,13 / 13,275032,2020-03-19 19:56:00:365
-6.081272,-7.991845,-1.307234,0.0,49.842354,24.038883,354.0,NaN,2.916,14.0,0.0,13 / 13,275532,2020-03-19 19:56:00:865
-3.519476,-0.416591,1.896208,0.0,49.842354,24.038883,354.0,NaN,2.916,14.0,0.0,13 / 13,276032,2020-03-19 19:56:01:365
-7.096413,-6.019023,-1.867477,0.0,49.842354,24.038883,354.0,NaN,2.916,14.0,0.0,13 / 13,276532,2020-03-19 19:56:01:865
-13.196839,-12.148179,-1.584961,0.0,49.842354,24.038883,354.0,NaN,2.916,14.0,0.0,13 / 13,277032,2020-03-19 19:56:02:365
-8.403648,-5.659893,-1.302446,0.0,49.842354,24.038883,354.0,NaN,2.916,14.0,0.0,13 / 13,277532,2020-03-19 19:56:02:865
-14.073117,-13.594277,6.584055,0.0,49.842354,24.038883,354.0,NaN,2.916,14.0,0.0,13 / 13,278032,2020-03-19 19:56:03:365
-9.859323,-10.314221,-8.049306,0.0,49.842354,24.038883,354.0,NaN,2.916,14.0,0.0,13 / 13,278532,2020-03-19 19:56:03:865
-4.003105,-11.003751,-0.90022,0.0,49.842354,24.038883,354.0,NaN,2.916,14.0,0.0,13 / 13,279032,2020-03-19 19:56:04:365
-3.696647,-1.335964,2.686294,0.0,49.842354,24.038883,354.0,NaN,2.916,14.0,0.0,13 / 13,279532,2020-03-19 19:56:04:865
-2.887407,-9.883265,-0.665588,0.0,49.842354,24.038883,354.0,NaN,2.916,14.0,0.0,13 / 13,280032,2020-03-19 19:56:05:365
-8.355764,-10.553641,-2.628833,0.0,49.842354,24.038883,354.0,NaN,2.916,14.0,0.0,13 / 13,280532,2020-03-19 19:56:05:865
-4.778826,1.412579,5.832276,0.0,49.842354,24.038883,354.0,NaN,2.916,14.0,0.0,13 / 13,281032,2020-03-19 19:56:06:365
-5.224148,-11.104307,1.786075,0.0,49.842354,24.038883,354.0,NaN,2.916,14.0,0.0,13 / 13,281532,2020-03-19 19:56:06:865
-14.863204,-13.694834,-8.690952,0.0,49.842354,24.038883,354.0,NaN,2.916,14.0,0.0,13 / 13,282032,2020-03-19 19:56:07:365
-3.117251,-11.233594,-0.560243,0.0,49.842354,24.038883,354.0,NaN,2.916,14.0,0.0,13 / 13,282532,2020-03-19 19:56:07:865
-2.858677,-1.833958,3.165135,0.0,49.842354,24.038883,354.0,NaN,2.916,14.0,0.0,13 / 13,283032,2020-03-19 19:56:08:365
-6.732495,-6.924031,-1.010353,0.0,49.842354,24.038883,354.0,NaN,2.916,14.0,0.0,13 / 13,283532,2020-03-19 19:56:08:865
-15.830462,-13.000515,2.734178,0.0,49.842354,24.038883,354.0,NaN,2.916,14.0,0.0,13 / 13,284033,2020-03-19 19:56:09:366
-7.699753,-9.131485,-0.287304,0.0,49.842354,24.038883,354.0,NaN,2.916,14.0,0.0,13 / 13,284532,2020-03-19 19:56:09:865
-5.114014,-11.142614,-0.71826,0.0,49.842354,24.038883,354.0,NaN,2.916,14.0,0.0,13 / 13,285032,2020-03-19 19:56:10:365
-0.699107,-3.605668,-2.102109,0.0,49.842354,24.038883,354.0,NaN,2.916,14.0,0.0,13 / 13,285532,2020-03-19 19:56:10:865
-3.270479,-5.568913,0.009577,0.0,49.842354,24.038883,354.0,NaN,2.916,14.0,0.0,13 / 13,286032,2020-03-19 19:56:11:365
-2.451662,-1.034295,2.710236,0.0,49.842354,24.038883,354.0,NaN,2.916,14.0,0.0,13 / 13,286532,2020-03-19 19:56:11:865
-4.161122,-8.920795,-0.229843,0.0,49.842354,24.038883,354.0,NaN,2.916,14.0,0.0,13 / 13,287032,2020-03-19 19:56:12:365
-12.789825,-10.19451,-1.604115,0.0,49.842354,24.038883,354.0,NaN,2.916,14.0,0.0,13 / 13,287532,2020-03-19 19:56:12:865
-8.585608,1.723825,-2.293645,0.0,49.842354,24.038883,354.0,NaN,2.916,14.0,0.0,13 / 13,288032,2020-03-19 19:56:13:365
-5.027823,-11.166556,1.130063,0.0,49.842354,24.038883,354.0,NaN,2.916,14.0,0.0,13 / 13,288532,2020-03-19 19:56:13:865
-2.949656,-3.960009,-1.40779,0.0,49.842354,24.038883,354.0,NaN,2.916,14.0,0.0,13 / 13,289032,2020-03-19 19:56:14:365
-2.504335,-10.002975,-1.043872,0.0,49.842354,24.038883,354.0,NaN,2.916,14.0,0.0,13 / 13,289532,2020-03-19 19:56:14:865
-9.782708,-9.797073,-0.914585,0.0,49.842354,24.038883,354.0,NaN,2.916,14.0,0.0,13 / 13,290032,2020-03-19 19:56:15:365
-7.876923,-5.712565,-0.919373,0.0,49.842354,24.038883,354.0,NaN,2.916,14.0,0.0,13 / 13,290532,2020-03-19 19:56:15:865
-11.118672,-9.840169,2.882619,0.0,49.842354,24.038883,354.0,NaN,2.916,14.0,0.0,13 / 13,291033,2020-03-19 19:56:16:366
-10.58716,-11.195287,-8.633492,0.0,49.842354,24.038883,354.0,NaN,2.916,14.0,0.0,13 / 13,291533,2020-03-19 19:56:16:866
-3.720589,-11.482592,0.378284,0.0,49.842354,24.038883,354.0,NaN,2.916,14.0,0.0,13 / 13,292033,2020-03-19 19:56:17:366
-3.342306,-0.081403,2.777274,0.0,49.842354,24.038883,354.0,NaN,2.916,14.0,0.0,13 / 13,292533,2020-03-19 19:56:17:866
-2.126051,-8.494628,-0.847547,0.0,49.842354,24.038883,354.0,NaN,2.916,14.0,0.0,13 / 13,293033,2020-03-19 19:56:18:366
-7.73806,-9.634268,-1.04866,0.0,49.842354,24.038883,354.0,NaN,2.916,14.0,0.0,13 / 13,293532,2020-03-19 19:56:18:865
-5.056554,2.255338,4.098873,0.0,49.842354,24.038883,354.0,NaN,2.916,14.0,0.0,13 / 13,294032,2020-03-19 19:56:19:365
-6.129156,-10.496181,0.11971,0.0,49.842354,24.038883,354.0,NaN,2.916,14.0,0.0,13 / 13,294532,2020-03-19 19:56:19:865
-3.854665,-7.393295,-10.644621,0.0,49.842354,24.038883,354.0,NaN,2.916,14.0,0.0,13 / 13,295032,2020-03-19 19:56:20:365
-2.60968,-8.322244,-0.129287,0.0,49.842354,24.038883,354.0,NaN,2.916,14.0,0.0,13 / 13,295532,2020-03-19 19:56:20:865
-9.710882,-10.199299,-0.905008,0.0,49.842354,24.038883,354.0,NaN,2.916,14.0,0.0,13 / 13,296032,2020-03-19 19:56:21:365
-1.455675,-9.792285,-0.378284,0.0,49.842354,24.038883,354.0,NaN,2.916,14.0,0.0,13 / 13,296532,2020-03-19 19:56:21:865
-9.835381,-9.993398,-1.16837,0.0,49.842354,24.038883,354.0,NaN,2.916,14.0,0.0,13 / 13,297032,2020-03-19 19:56:22:365
-5.147533,2.336741,3.050213,0.0,49.842354,24.038883,354.0,NaN,2.916,14.0,0.0,13 / 13,297532,2020-03-19 19:56:22:865
-5.985504,-12.325351,-2.82037,0.0,49.842354,24.038883,354.0,NaN,2.916,14.0,0.0,13 / 13,298032,2020-03-19 19:56:23:365
-8.2169,-12.430696,-17.822437,0.0,49.842354,24.038883,354.0,NaN,2.916,14.0,0.0,13 / 13,298532,2020-03-19 19:56:23:865
-4.3766,-7.244854,0.612916,0.0,49.842354,24.038883,354.0,NaN,2.916,14.0,0.0,13 / 13,299032,2020-03-19 19:56:24:365
-3.634398,-2.035071,1.364695,0.0,49.842354,24.038883,354.0,NaN,2.916,14.0,0.0,13 / 13,299532,2020-03-19 19:56:24:865
-7.259219,-5.401319,-0.804452,0.0,49.842354,24.038883,354.0,NaN,2.916,14.0,0.0,13 / 13,300032,2020-03-19 19:56:25:365
-8.75799,-11.142614,3.05979,0.0,49.842354,24.038883,354.0,NaN,2.916,14.0,0.0,13 / 13,300532,2020-03-19 19:56:25:865
-15.638926,-13.000515,-14.618996,0.0,49.842354,24.038883,354.0,NaN,2.916,14.0,0.0,13 / 13,301033,2020-03-19 19:56:26:366
-3.605668,-14.973337,-5.109226,0.0,49.842354,24.038883,354.0,NaN,2.916,14.0,0.0,13 / 13,301533,2020-03-19 19:56:26:866
-3.648763,-9.356541,-7.843405,0.0,49.842354,24.038883,354.0,NaN,2.916,14.0,0.0,13 / 13,302032,2020-03-19 19:56:27:365
-4.874594,-7.302315,-2.250549,0.0,49.842354,24.038883,354.0,NaN,2.916,14.0,0.0,13 / 13,302533,2020-03-19 19:56:27:866
-3.581726,-3.960009,-0.670376,0.0,49.842354,24.038883,354.0,NaN,2.916,14.0,0.0,13 / 13,303032,2020-03-19 19:56:28:365
-2.896984,-10.955867,-4.118027,0.0,49.842354,24.038883,354.0,NaN,2.916,14.0,0.0,13 / 13,303532,2020-03-19 19:56:28:865
-5.310339,-13.249513,-3.002329,0.0,49.842354,24.038883,354.0,NaN,2.916,14.0,0.0,13 / 13,304032,2020-03-19 19:56:29:365
-7.704541,-6.042965,-6.229713,0.0,49.842354,24.038883,354.0,NaN,2.916,14.0,0.0,13 / 13,304532,2020-03-19 19:56:29:865
-7.335834,-7.249643,-0.282516,0.0,49.842354,24.038883,354.0,NaN,2.916,14.0,0.0,13 / 13,305032,2020-03-19 19:56:30:365
-4.58729,-2.930503,-0.167594,0.0,49.842354,24.038883,354.0,NaN,2.916,14.0,0.0,13 / 13,305532,2020-03-19 19:56:30:865
-9.11712,-4.491522,2.499547,0.0,49.842354,24.038883,354.0,NaN,2.916,14.0,0.0,13 / 13,306032,2020-03-19 19:56:31:365
-2.035071,-10.328587,-0.335188,0.0,49.842354,24.038883,354.0,NaN,2.916,14.0,0.0,13 / 13,306532,2020-03-19 19:56:31:865
-1.431733,-11.27669,-4.76925,0.0,49.842354,24.038883,354.0,NaN,2.916,14.0,0.0,13 / 13,307032,2020-03-19 19:56:32:365
-8.010998,-10.093954,-4.529829,0.0,49.842354,24.038883,354.0,NaN,2.916,14.0,0.0,13 / 13,307532,2020-03-19 19:56:32:865
0.919373,-6.995857,-4.874594,0.0,49.842354,24.038883,354.0,NaN,2.916,14.0,0.0,13 / 13,308032,2020-03-19 19:56:33:365
-3.720589,-9.562442,-1.115698,0.0,49.842354,24.038883,354.0,NaN,2.916,14.0,0.0,13 / 13,308532,2020-03-19 19:56:33:865
-3.08852,-1.244985,0.68953,0.0,49.842354,24.038883,354.0,NaN,2.916,14.0,0.0,13 / 13,309033,2020-03-19 19:56:34:366
-6.607996,-7.953538,-1.671153,0.0,49.842354,24.038883,354.0,NaN,2.916,14.0,0.0,13 / 13,309533,2020-03-19 19:56:34:866
-6.98628,-10.429143,0.957681,0.0,49.842354,24.038883,354.0,NaN,2.916,14.0,0.0,13 / 13,310032,2020-03-19 19:56:35:365
-14.408306,-13.804967,-9.074024,0.0,49.842354,24.038883,354.0,NaN,2.916,14.0,0.0,13 / 13,310532,2020-03-19 19:56:35:865
-2.087744,-12.344504,-0.014365,0.0,49.842354,24.038883,354.0,NaN,2.916,14.0,0.0,13 / 13,311032,2020-03-19 19:56:36:365
-2.719813,-1.158794,2.173935,0.0,49.842354,24.038883,354.0,NaN,2.916,14.0,0.0,13 / 13,311532,2020-03-19 19:56:36:865
-1.000776,-10.237606,-0.756568,0.0,49.842354,24.038883,354.0,NaN,2.916,14.0,0.0,13 / 13,312032,2020-03-19 19:56:37:365
-2.619257,-1.388637,1.130063,0.0,49.842354,24.038883,354.0,NaN,2.916,14.0,0.0,13 / 13,312532,2020-03-19 19:56:37:865
-7.829039,-5.449203,-1.436521,0.0,49.842354,24.038883,354.0,NaN,2.916,14.0,0.0,13 / 13,313032,2020-03-19 19:56:38:365
-14.628572,-11.070788,3.031059,0.0,49.842354,24.038883,354.0,NaN,2.916,14.0,0.0,13 / 13,313532,2020-03-19 19:56:38:865
-6.593631,-13.048399,-4.175488,0.0,49.842354,24.038883,354.0,NaN,2.916,14.0,0.0,13 / 13,314032,2020-03-19 19:56:39:365
-4.132392,-11.267113,-0.517148,0.0,49.842354,24.038883,354.0,NaN,2.916,14.0,0.0,13 / 13,314532,2020-03-19 19:56:39:865
-2.27928,-1.321599,1.240197,0.0,49.842354,24.038883,354.0,NaN,2.916,14.0,0.0,13 / 13,315032,2020-03-19 19:56:40:365
-2.197877,-8.858546,-1.11091,0.0,49.842354,24.038883,354.0,NaN,2.916,14.0,0.0,13 / 13,315532,2020-03-19 19:56:40:865
-8.738836,-10.55843,-2.403778,0.0,49.842354,24.038883,354.0,NaN,2.916,14.0,0.0,13 / 13,316032,2020-03-19 19:56:41:365
-4.707,3.653552,11.587936,0.0,49.842354,24.038883,354.0,NaN,2.916,14.0,0.0,13 / 13,316532,2020-03-19 19:56:41:865
-10.927136,-10.515334,8.049306,0.0,49.842354,24.038883,354.0,NaN,2.916,14.0,0.0,13 / 13,317032,2020-03-19 19:56:42:365
-12.488156,-13.680469,-11.061212,0.0,49.842354,24.038883,354.0,NaN,2.916,14.0,0.0,13 / 13,317533,2020-03-19 19:56:42:866
-3.308787,-12.071565,0.574608,0.0,49.842354,24.038883,354.0,NaN,2.916,14.0,0.0,13 / 13,318033,2020-03-19 19:56:43:366
-3.394978,-0.756568,2.197877,0.0,49.842354,24.038883,354.0,NaN,2.916,14.0,0.0,13 / 13,318533,2020-03-19 19:56:43:866
-3.931279,-8.24563,-0.742202,0.0,49.842354,24.038883,354.0,NaN,2.916,14.0,0.0,13 / 13,319032,2020-03-19 19:56:44:365
-13.000515,-9.198523,-1.685518,0.0,49.842354,24.038883,354.0,NaN,2.916,14.0,0.0,13 / 13,319532,2020-03-19 19:56:44:865
7.637504,8.590396,20.805613,0.0,49.842354,24.038883,354.0,NaN,2.916,14.0,0.0,13 / 13,320032,2020-03-19 19:56:45:365
-4.003105,-13.029245,1.13964,0.0,49.842354,24.038883,354.0,NaN,2.916,14.0,0.0,13 / 13,320532,2020-03-19 19:56:45:865
-4.836287,-10.548853,-11.96622,0.0,49.842354,24.038883,354.0,NaN,2.916,14.0,0.0,13 / 13,321032,2020-03-19 19:56:46:365
-4.572925,-6.813898,0.296881,0.0,49.842354,24.038883,354.0,NaN,2.916,14.0,0.0,13 / 13,321532,2020-03-19 19:56:46:865
0.416591,-10.539276,0.59855,0.0,49.842354,24.038883,354.0,NaN,2.916,14.0,0.0,13 / 13,322032,2020-03-19 19:56:47:365
-2.494758,-8.734048,-0.076614,0.0,49.842354,24.038883,354.0,NaN,2.916,14.0,0.0,13 / 13,322532,2020-03-19 19:56:47:865
-8.197746,-9.911995,-1.47004,0.0,49.842354,24.038883,354.0,NaN,2.916,14.0,0.0,13 / 13,323032,2020-03-19 19:56:48:365
-7.19697,2.513912,0.627281,0.0,49.842354,24.038883,354.0,NaN,2.916,14.0,0.0,13 / 13,323532,2020-03-19 19:56:48:865
-6.181829,-12.612655,-2.135628,0.0,49.842354,24.038883,354.0,NaN,2.916,14.0,0.0,13 / 13,324032,2020-03-19 19:56:49:365
-11.798626,-14.413095,-18.794483,0.0,49.842354,24.038883,354.0,NaN,2.916,14.0,0.0,13 / 13,324532,2020-03-19 19:56:49:865
-4.089296,-7.388506,0.890643,0.0,49.842354,24.038883,354.0,NaN,2.916,14.0,0.0,13 / 13,325032,2020-03-19 19:56:50:365
-2.202665,-9.830592,-0.699107,0.0,49.842354,24.038883,354.0,NaN,2.916,14.0,0.0,13 / 13,325532,2020-03-19 19:56:50:865
-5.214571,-13.843274,8.552089,0.0,49.842354,24.038883,354.0,NaN,2.916,14.0,0.0,13 / 13,326033,2020-03-19 19:56:51:366
-6.612785,-10.371682,-0.684742,0.0,49.842354,24.038883,354.0,NaN,2.916,14.0,0.0,13 / 13,326532,2020-03-19 19:56:51:865
-12.727576,-8.374918,-3.940856,0.0,49.842354,24.038883,354.0,NaN,2.916,14.0,0.0,13 / 13,327032,2020-03-19 19:56:52:365
-5.477933,-12.660539,-1.833958,0.0,49.842354,24.038883,354.0,NaN,2.916,14.0,0.0,13 / 13,327532,2020-03-19 19:56:52:865
-10.79785,-10.807426,-16.093824,0.0,49.842354,24.038883,354.0,NaN,2.916,14.0,0.0,13 / 13,328032,2020-03-19 19:56:53:365
-4.371812,-6.98628,1.297657,0.0,49.842354,24.038883,354.0,NaN,2.916,14.0,0.0,13 / 13,328532,2020-03-19 19:56:53:865
-1.503559,-5.722142,0.272939,0.0,49.842354,24.038883,354.0,NaN,2.916,14.0,0.0,13 / 13,329032,2020-03-19 19:56:54:365
-3.653552,-8.911219,-0.579397,0.0,49.842354,24.038883,354.0,NaN,2.916,14.0,0.0,13 / 13,329532,2020-03-19 19:56:54:865
-8.930372,-9.868899,-0.488417,0.0,49.842354,24.038883,354.0,NaN,2.916,14.0,0.0,13 / 13,330032,2020-03-19 19:56:55:365
-7.76679,-10.371682,-7.225701,0.0,49.842354,24.038883,354.0,NaN,2.916,14.0,0.0,13 / 13,330532,2020-03-19 19:56:55:865
-5.712565,-14.757859,-3.74932,0.0,49.842354,24.038883,354.0,NaN,2.916,14.0,0.0,13 / 13,331032,2020-03-19 19:56:56:365
-4.936844,-4.716577,-4.323928,0.0,49.842354,24.038883,354.0,NaN,2.916,14.0,0.0,13 / 13,331532,2020-03-19 19:56:56:865
-5.923255,-7.383718,-1.340753,0.0,49.842354,24.038883,354.0,NaN,2.916,14.0,0.0,13 / 13,332032,2020-03-19 19:56:57:365
-3.011906,-1.484405,2.15957,0.0,49.842354,24.038883,354.0,NaN,2.916,14.0,0.0,13 / 13,332533,2020-03-19 19:56:57:866
-7.752425,-5.51624,-2.202665,0.0,49.842354,24.038883,354.0,NaN,2.916,14.0,0.0,13 / 13,333033,2020-03-19 19:56:58:366
-14.188039,-11.075577,4.702213,0.0,49.842354,24.038883,354.0,NaN,2.916,14.0,0.0,13 / 13,333532,2020-03-19 19:56:58:865
-6.449979,2.13084,12.703634,0.0,49.842354,24.038883,354.0,NaN,2.916,14.0,0.0,13 / 13,334032,2020-03-19 19:56:59:365
-5.985504,-11.674128,-0.574608,0.0,49.842354,24.038883,354.0,NaN,2.916,14.0,0.0,13 / 13,334532,2020-03-19 19:56:59:865
-10.022128,-6.670246,-8.75799,0.0,49.842354,24.038883,354.0,NaN,2.916,14.0,0.0,13 / 13,335032,2020-03-19 19:57:00:365
-1.647211,-12.832921,-1.335964,0.0,49.842354,24.038883,354.0,NaN,2.916,14.0,0.0,13 / 13,335532,2020-03-19 19:57:00:865
-2.552219,0.138864,3.591303,0.0,49.842354,24.038883,354.0,NaN,2.916,14.0,0.0,0 / 0,336032,2020-03-19 19:57:01:365
-2.887407,-8.839393,-0.134075,0.0,49.842354,24.038883,354.0,NaN,2.916,14.0,0.0,0 / 0,336532,2020-03-19 19:57:01:865
-11.425131,-10.625467,-3.064578,0.0,49.842354,24.038883,354.0,NaN,2.916,14.0,0.0,0 / 1,337032,2020-03-19 19:57:02:365
-2.585738,-0.134075,-2.149993,0.0,49.842354,24.038883,354.0,NaN,2.916,14.0,0.0,0 / 1,337532,2020-03-19 19:57:02:865
-4.802768,-14.733917,-2.011129,0.0,49.842354,24.038883,354.0,NaN,2.916,14.0,0.0,0 / 5,338032,2020-03-19 19:57:03:365
-7.096413,-9.763555,-16.955736,0.0,49.842354,24.038883,354.0,NaN,2.916,14.0,0.0,0 / 5,338532,2020-03-19 19:57:03:865
-4.156334,-11.75553,1.546654,0.0,49.842354,24.038883,354.0,NaN,2.916,14.0,0.0,9 / 9,339032,2020-03-19 19:57:04:365
-2.341529,-5.674258,-4.635174,0.0,49.842354,24.038883,354.0,NaN,2.916,14.0,0.0,9 / 9,339532,2020-03-19 19:57:04:865
-3.960009,-7.206547,-0.656011,0.0,49.84213,24.037937,364.0,NaN,2.844,9.5,54.4,20 / 21,340032,2020-03-19 19:57:05:365
-0.114922,-7.762002,-0.861913,0.0,49.84213,24.037937,364.0,NaN,2.844,9.5,54.4,20 / 21,340532,2020-03-19 19:57:05:865
-3.069367,-7.560889,-0.397437,0.0,49.84213,24.037937,364.0,NaN,2.844,9.5,54.4,20 / 21,341032,2020-03-19 19:57:06:365
-9.787497,-10.309433,3.533842,0.0,49.84213,24.037937,364.0,NaN,2.844,9.5,54.4,20 / 21,341532,2020-03-19 19:57:06:865
-6.789956,-7.690176,5.76045,0.0,49.84213,24.037937,364.0,NaN,2.844,9.5,54.4,20 / 21,342032,2020-03-19 19:57:07:365
-4.912902,-13.498509,-0.684742,0.0,49.84213,24.037937,364.0,NaN,2.844,9.5,54.4,20 / 21,342532,2020-03-19 19:57:07:865
-13.570335,-14.642938,-18.076223,0.0,49.84213,24.037937,364.0,NaN,2.844,9.5,54.4,20 / 21,343032,2020-03-19 19:57:08:365
-4.620809,-6.282385,1.436521,0.0,49.84213,24.037937,364.0,NaN,2.844,9.5,54.4,20 / 21,343532,2020-03-19 19:57:08:865
-2.753332,-3.126827,1.144428,0.0,49.84213,24.037937,364.0,NaN,2.844,9.5,54.4,20 / 21,344032,2020-03-19 19:57:09:365
-4.774038,-6.852205,0.814029,0.0,49.84213,24.037937,364.0,NaN,2.844,9.5,54.4,20 / 21,344532,2020-03-19 19:57:09:865
-2.298433,-4.663905,0.11971,0.0,49.84213,24.037937,364.0,NaN,2.844,9.5,54.4,20 / 21,345032,2020-03-19 19:57:10:365
-4.520252,-7.173028,1.929727,0.0,49.84213,24.037937,364.0,NaN,2.844,9.5,54.4,20 / 21,345532,2020-03-19 19:57:10:865
-9.782708,-9.284714,2.274492,0.0,49.84213,24.037937,364.0,NaN,2.844,9.5,54.4,20 / 21,346032,2020-03-19 19:57:11:365
-18.133684,-8.690952,-6.799533,0.0,49.84213,24.037937,364.0,NaN,2.844,9.5,54.4,20 / 21,346532,2020-03-19 19:57:11:865
-2.557007,-12.378023,-0.148441,0.0,49.84213,24.037937,364.0,NaN,2.844,9.5,54.4,20 / 21,347032,2020-03-19 19:57:12:365
-4.908113,-2.691083,-1.455675,0.0,49.84213,24.037937,364.0,NaN,2.844,9.5,54.4,20 / 21,347532,2020-03-19 19:57:12:865
-3.189077,-8.140285,0.402226,0.0,49.84213,24.037937,364.0,NaN,2.844,9.5,54.4,20 / 21,348032,2020-03-19 19:57:13:365
-3.246537,-3.055001,-1.130063,0.0,49.84213,24.037937,364.0,NaN,2.844,9.5,54.4,20 / 21,348532,2020-03-19 19:57:13:865
-2.317587,-8.75799,-0.057461,0.0,49.84213,24.037937,364.0,NaN,2.844,9.5,54.4,20 / 21,349032,2020-03-19 19:57:14:365
0.440533,-11.731588,-0.057461,0.0,49.84213,24.037937,364.0,NaN,2.844,9.5,54.4,20 / 21,349532,2020-03-19 19:57:14:865
-8.255207,-16.754623,-7.101202,0.0,49.84213,24.037937,364.0,NaN,2.844,9.5,54.4,20 / 21,350032,2020-03-19 19:57:15:365
-8.911219,-9.782708,-3.256114,0.0,49.84213,24.037937,364.0,NaN,2.844,9.5,54.4,20 / 21,350532,2020-03-19 19:57:15:865
-11.008539,-12.11466,-8.676587,0.0,49.84213,24.037937,364.0,NaN,2.844,9.5,54.4,20 / 21,351032,2020-03-19 19:57:16:365
-2.844312,-11.93749,-1.508347,0.0,49.84213,24.037937,364.0,NaN,2.844,9.5,54.4,20 / 21,351532,2020-03-19 19:57:16:865
-2.94008,-2.020706,1.273715,0.0,49.84213,24.037937,364.0,NaN,2.844,9.5,54.4,20 / 21,352032,2020-03-19 19:57:17:365
-3.160346,-11.343728,-1.374272,0.0,49.84213,24.037937,364.0,NaN,2.844,9.5,54.4,20 / 21,352532,2020-03-19 19:57:17:865
-2.245761,-0.593762,2.145205,0.0,49.84213,24.037937,364.0,NaN,2.844,9.5,54.4,20 / 21,353032,2020-03-19 19:57:18:365
-1.934515,-9.931149,-0.651223,0.0,49.84213,24.037937,364.0,NaN,2.844,9.5,54.4,20 / 21,353532,2020-03-19 19:57:18:865
-10.884041,-11.583148,-0.703895,0.0,49.84213,24.037937,364.0,NaN,2.844,9.5,54.4,20 / 21,354032,2020-03-19 19:57:19:365
-5.051765,-7.800309,11.903971,0.0,49.84213,24.037937,364.0,NaN,2.844,9.5,54.4,20 / 21,354532,2020-03-19 19:57:19:865
-5.382165,-13.656527,-1.695095,0.0,49.84213,24.037937,364.0,NaN,2.844,9.5,54.4,20 / 21,355033,2020-03-19 19:57:20:366
-8.384495,-14.757859,-15.911864,0.0,49.84213,24.037937,364.0,NaN,2.844,9.5,54.4,20 / 21,355532,2020-03-19 19:57:20:865
-5.094861,-6.392518,0.229843,0.0,49.84213,24.037937,364.0,NaN,2.844,9.5,54.4,20 / 21,356032,2020-03-19 19:57:21:365
-4.55856,-7.144298,-9.409213,0.0,49.84213,24.037937,364.0,NaN,2.844,9.5,54.4,20 / 21,356533,2020-03-19 19:57:21:866
-3.399766,-7.359776,-0.095768,0.0,49.84213,24.037937,364.0,NaN,2.844,9.5,54.4,20 / 21,357033,2020-03-19 19:57:22:366
-1.053449,-10.304645,-1.73819,0.0,49.84213,24.037937,364.0,NaN,2.844,9.5,54.4,20 / 21,357532,2020-03-19 19:57:22:865
-8.09719,-11.563994,12.880805,0.0,49.84213,24.037937,364.0,NaN,2.844,9.5,54.4,20 / 21,358032,2020-03-19 19:57:23:365
-5.152322,-9.639056,-0.80924,0.0,49.84213,24.037937,364.0,NaN,2.844,9.5,54.4,20 / 21,358532,2020-03-19 19:57:23:865
-3.509899,-3.519476,-3.045424,0.0,49.84213,24.037937,364.0,NaN,2.844,9.5,54.4,20 / 21,359032,2020-03-19 19:57:24:365
-3.016694,-8.710106,-0.943315,0.0,49.84213,24.037937,364.0,NaN,2.844,9.5,54.4,20 / 21,359532,2020-03-19 19:57:24:865
-8.537724,-10.773908,-1.04866,0.0,49.84213,24.037937,364.0,NaN,2.844,9.5,54.4,20 / 21,360032,2020-03-19 19:57:25:365
-5.444414,-18.32522,-8.576031,0.0,49.84213,24.037937,364.0,NaN,2.844,9.5,54.4,20 / 21,360532,2020-03-19 19:57:25:865
-11.544841,-11.042058,0.105345,0.0,49.84213,24.037937,364.0,NaN,2.844,9.5,54.4,20 / 21,361032,2020-03-19 19:57:26:365
-12.090718,-1.024718,-8.963891,0.0,49.84213,24.037937,364.0,NaN,2.844,9.5,54.4,20 / 21,361532,2020-03-19 19:57:26:865
-5.707777,-10.927136,-1.484405,0.0,49.84213,24.037937,364.0,NaN,2.844,9.5,54.4,20 / 21,362032,2020-03-19 19:57:27:365
-3.921702,-2.911349,-0.80924,0.0,49.84213,24.037937,364.0,NaN,2.844,9.5,54.4,20 / 21,362532,2020-03-19 19:57:27:865
-3.270479,-6.244078,-0.651223,0.0,49.84213,24.037937,364.0,NaN,2.844,9.5,54.4,20 / 21,363032,2020-03-19 19:57:28:365
-6.062118,-8.738836,-1.04866,0.0,49.84213,24.037937,364.0,NaN,2.844,9.5,54.4,20 / 21,363532,2020-03-19 19:57:28:865
-5.204994,7.613562,2.681506,0.0,49.84213,24.037937,364.0,NaN,2.844,9.5,54.4,20 / 21,364032,2020-03-19 19:57:29:365
-6.354211,-10.702082,0.565032,0.0,49.84213,24.037937,364.0,NaN,2.844,9.5,54.4,20 / 21,364533,2020-03-19 19:57:29:866
-3.500323,-3.165135,0.110133,0.0,49.84213,24.037937,364.0,NaN,2.844,9.5,54.4,20 / 21,365032,2020-03-19 19:57:30:365
-2.94008,-8.743625,-0.861913,0.0,49.84213,24.037937,364.0,NaN,2.844,9.5,54.4,20 / 21,365532,2020-03-19 19:57:30:865
-1.25935,-12.770672,-1.92015,0.0,49.84213,24.037937,364.0,NaN,2.844,9.5,54.4,20 / 21,366032,2020-03-19 19:57:31:365
-8.963891,-15.524004,3.347094,0.0,49.84213,24.037937,364.0,NaN,2.844,9.5,54.4,20 / 21,366532,2020-03-19 19:57:31:865
-4.276044,-11.377247,-1.082179,0.0,49.84213,24.037937,364.0,NaN,2.844,9.5,54.4,20 / 21,367033,2020-03-19 19:57:32:366
-4.821922,-14.508862,-14.709975,0.0,49.84213,24.037937,364.0,NaN,2.844,9.5,54.4,20 / 21,367532,2020-03-19 19:57:32:865
-3.481169,-8.03494,-0.181959,0.0,49.84213,24.037937,364.0,NaN,2.844,9.5,54.4,20 / 21,368032,2020-03-19 19:57:33:365
-3.744531,-2.494758,-2.135628,0.0,49.84213,24.037937,364.0,NaN,2.844,9.5,54.4,20 / 21,368532,2020-03-19 19:57:33:865
-4.740519,-9.864111,-1.130063,0.0,49.84213,24.037937,364.0,NaN,2.844,9.5,54.4,20 / 21,369032,2020-03-19 19:57:34:365
-13.575124,-11.353305,3.77805,0.0,49.84213,24.037937,364.0,NaN,2.844,9.5,54.4,20 / 21,369532,2020-03-19 19:57:34:865
-11.774684,-13.096283,-8.63828,0.0,49.84213,24.037937,364.0,NaN,2.844,9.5,54.4,20 / 21,370032,2020-03-19 19:57:35:365
-3.916914,-11.032481,1.843535,0.0,49.84213,24.037937,364.0,NaN,2.844,9.5,54.4,20 / 21,370532,2020-03-19 19:57:35:865
-11.180922,-11.678916,-8.815451,0.0,49.84213,24.037937,364.0,NaN,2.844,9.5,54.4,20 / 21,371032,2020-03-19 19:57:36:365
-2.624045,-11.473015,-1.249773,0.0,49.84213,24.037937,364.0,NaN,2.844,9.5,54.4,20 / 21,371532,2020-03-19 19:57:36:865
-3.189077,-0.402226,2.451663,0.0,49.84213,24.037937,364.0,NaN,2.844,9.5,54.4,20 / 21,372032,2020-03-19 19:57:37:365
-5.856217,-6.598419,-0.905008,0.0,49.84213,24.037937,364.0,NaN,2.844,9.5,54.4,20 / 21,372532,2020-03-19 19:57:37:865
-13.718776,-10.026917,-0.430956,0.0,49.84213,24.037937,364.0,NaN,2.844,9.5,54.4,20 / 21,373032,2020-03-19 19:57:38:365
-9.457097,-12.315774,-0.105345,0.0,49.84213,24.037937,364.0,NaN,2.844,9.5,54.4,20 / 21,373532,2020-03-19 19:57:38:865
-4.831499,-10.673351,0.248997,0.0,49.84213,24.037937,364.0,NaN,2.844,9.5,54.4,20 / 21,374032,2020-03-19 19:57:39:365
-1.924938,-3.888183,-1.900996,0.0,49.84213,24.037937,364.0,NaN,2.844,9.5,54.4,20 / 21,374532,2020-03-19 19:57:39:865
-6.531382,-9.706094,-1.867477,0.0,49.84213,24.037937,364.0,NaN,2.844,9.5,54.4,20 / 21,375032,2020-03-19 19:57:40:365
-3.639186,-1.561019,0.588974,0.0,49.84213,24.037937,364.0,NaN,2.844,9.5,54.4,20 / 21,375532,2020-03-19 19:57:40:865
-9.581595,-4.290409,-0.814029,0.0,49.84213,24.037937,364.0,NaN,2.844,9.5,54.4,20 / 21,376033,2020-03-19 19:57:41:366
-10.769119,-9.955091,3.308787,0.0,49.84213,24.037937,364.0,NaN,2.844,9.5,54.4,20 / 21,376533,2020-03-19 19:57:41:866
-7.536947,-12.430696,-8.801085,0.0,49.84213,24.037937,364.0,NaN,2.844,9.5,54.4,20 / 21,377033,2020-03-19 19:57:42:366
-2.327164,-11.597513,-2.786851,0.0,49.84213,24.037937,364.0,NaN,2.844,9.5,54.4,20 / 21,377532,2020-03-19 19:57:42:865
-4.668693,-1.666364,1.675941,0.0,49.84213,24.037937,364.0,NaN,2.844,9.5,54.4,20 / 21,378032,2020-03-19 19:57:43:365
-6.775591,-7.034164,0.196325,0.0,49.84213,24.037937,364.0,NaN,2.844,9.5,54.4,20 / 21,378532,2020-03-19 19:57:43:865
-7.134721,-10.620679,-3.950433,0.0,49.84213,24.037937,364.0,NaN,2.844,9.5,54.4,20 / 21,379032,2020-03-19 19:57:44:365
-8.370129,-20.63323,-7.201759,0.0,49.84213,24.037937,364.0,NaN,2.844,9.5,54.4,20 / 21,379532,2020-03-19 19:57:44:865
-2.75812,-13.819332,-0.991199,0.0,49.84213,24.037937,364.0,NaN,2.844,9.5,54.4,20 / 21,380032,2020-03-19 19:57:45:365
-4.410119,-7.268796,-13.172897,0.0,49.84213,24.037937,364.0,NaN,2.844,9.5,54.4,20 / 21,380532,2020-03-19 19:57:45:865
-4.515464,-7.848193,0.732626,0.0,49.84213,24.037937,364.0,NaN,2.844,9.5,54.4,20 / 21,381032,2020-03-19 19:57:46:365
-3.016694,-10.860099,-1.537077,0.0,49.84213,24.037937,364.0,NaN,2.844,9.5,54.4,20 / 21,381532,2020-03-19 19:57:46:865
-7.939172,-17.736246,1.80044,0.0,49.84213,24.037937,364.0,NaN,2.844,9.5,54.4,20 / 21,382032,2020-03-19 19:57:47:365
-4.290409,-12.483368,0.387861,0.0,49.84213,24.037937,364.0,NaN,2.844,9.5,54.4,20 / 21,382532,2020-03-19 19:57:47:865
-4.390966,-7.776367,-14.566323,0.0,49.84213,24.037937,364.0,NaN,2.844,9.5,54.4,20 / 21,383032,2020-03-19 19:57:48:365
-5.655104,-7.694964,-0.474052,0.0,49.84213,24.037937,364.0,NaN,2.844,9.5,54.4,20 / 21,383532,2020-03-19 19:57:48:865
-2.920926,-2.006341,-0.100556,0.0,49.84213,24.037937,364.0,NaN,2.844,9.5,54.4,20 / 21,384032,2020-03-19 19:57:49:365
-6.162675,-8.192958,-2.15957,0.0,49.84213,24.037937,364.0,NaN,2.844,9.5,54.4,20 / 21,384532,2020-03-19 19:57:49:865
-10.462662,-9.667787,3.701436,0.0,49.84213,24.037937,364.0,NaN,2.844,9.5,54.4,20 / 21,385032,2020-03-19 19:57:50:365
-11.271901,-14.681245,-12.890382,0.0,49.84213,24.037937,364.0,NaN,2.844,9.5,54.4,20 / 21,385532,2020-03-19 19:57:50:865
-1.944092,-11.496957,-3.356671,0.0,49.84213,24.037937,364.0,NaN,2.844,9.5,54.4,20 / 21,386032,2020-03-19 19:57:51:365
-1.838747,-3.68707,-0.11971,0.0,49.84213,24.037937,364.0,NaN,2.844,9.5,54.4,20 / 21,386532,2020-03-19 19:57:51:865
-6.354211,-8.121132,-0.588974,0.0,49.84213,24.037937,364.0,NaN,2.844,9.5,54.4,20 / 21,387032,2020-03-19 19:57:52:365
-6.660669,-12.62702,-2.868254,0.0,49.84213,24.037937,364.0,NaN,2.844,9.5,54.4,20 / 21,387532,2020-03-19 19:57:52:865
-2.312799,-5.66947,-7.64708,0.0,49.84213,24.037937,364.0,NaN,2.844,9.5,54.4,20 / 21,388033,2020-03-19 19:57:53:366
-5.372588,-8.868123,-0.02873,0.0,49.84213,24.037937,364.0,NaN,2.844,9.5,54.4,0 / 0,388532,2020-03-19 19:57:53:865
-4.46758,-7.07726,-12.943054,0.0,49.84213,24.037937,364.0,NaN,2.844,9.5,54.4,0 / 0,389032,2020-03-19 19:57:54:365
-5.161899,-6.598419,-1.058237,0.0,49.84213,24.037937,364.0,NaN,2.844,9.5,54.4,5 / 5,389532,2020-03-19 19:57:54:865
-1.556231,-7.048529,-0.842759,0.0,49.84213,24.037937,364.0,NaN,2.844,9.5,54.4,5 / 5,390032,2020-03-19 19:57:55:365
-6.172252,-7.043741,-1.11091,0.0,49.84213,24.037937,364.0,NaN,2.844,9.5,54.4,12 / 12,390532,2020-03-19 19:57:55:865
-6.847417,-9.931149,-3.485957,0.0,49.84213,24.037937,364.0,NaN,2.844,9.5,54.4,12 / 12,391032,2020-03-19 19:57:56:365
-0.339977,-7.450755,-7.096413,0.0,49.84213,24.037937,364.0,NaN,2.844,9.5,54.4,10 / 16,391532,2020-03-19 19:57:56:865
-4.367024,-8.753201,-2.973598,0.0,49.84213,24.037937,364.0,NaN,2.844,9.5,54.4,10 / 16,392032,2020-03-19 19:57:57:365
-3.62961,-1.517924,0.387861,0.0,49.84213,24.037937,364.0,NaN,2.844,9.5,54.4,10 / 16,392532,2020-03-19 19:57:57:865
-2.336741,-8.8777,0.368707,0.0,49.84213,24.037937,364.0,NaN,2.844,9.5,54.4,10 / 16,393032,2020-03-19 19:57:58:365
-5.027823,-2.537854,0.282516,0.0,49.84213,24.037937,364.0,NaN,2.844,9.5,54.4,10 / 16,393532,2020-03-19 19:57:58:865
-7.694964,-6.799533,-0.052672,0.0,49.84213,24.037937,364.0,NaN,2.844,9.5,54.4,10 / 16,394032,2020-03-19 19:57:59:365
-6.200982,-12.248735,-2.719813,0.0,49.84213,24.037937,364.0,NaN,2.844,9.5,54.4,10 / 16,394532,2020-03-19 19:57:59:865
-1.833958,-7.522581,-7.73806,0.0,49.84213,24.037937,364.0,NaN,2.844,9.5,54.4,10 / 16,395032,2020-03-19 19:58:00:365
-3.016694,-8.279149,1.264139,0.0,49.84213,24.037937,364.0,NaN,2.844,9.5,54.4,10 / 16,395532,2020-03-19 19:58:00:865
-3.217807,-5.549759,-1.675941,0.0,49.84213,24.037937,364.0,NaN,2.844,9.5,54.4,10 / 16,396032,2020-03-19 19:58:01:365
-6.560112,-6.766014,-0.799663,0.0,49.84213,24.037937,364.0,NaN,2.844,9.5,54.4,10 / 16,396532,2020-03-19 19:58:01:865
-8.441956,-11.051635,-3.514688,0.0,49.84213,24.037937,364.0,NaN,2.844,9.5,54.4,10 / 16,397032,2020-03-19 19:58:02:365
0.842759,-4.577713,-6.301539,0.0,49.84213,24.037937,364.0,NaN,2.844,9.5,54.4,10 / 16,397532,2020-03-19 19:58:02:865
-5.315128,-12.607866,1.039084,0.0,49.84213,24.037937,364.0,NaN,2.844,9.5,54.4,10 / 16,398032,2020-03-19 19:58:03:365
-2.901772,-7.465121,-14.69561,0.0,49.84213,24.037937,364.0,NaN,2.844,9.5,54.4,10 / 16,398532,2020-03-19 19:58:03:865
-3.667917,-8.944737,1.154005,0.0,49.84213,24.037937,364.0,NaN,2.844,9.5,54.4,10 / 16,399033,2020-03-19 19:58:04:366
-2.054225,-6.038176,-1.843535,0.0,49.84213,24.037937,364.0,NaN,2.844,9.5,54.4,10 / 16,399533,2020-03-19 19:58:04:866
-8.714894,-4.43885,-0.708684,0.0,49.84213,24.037937,364.0,NaN,2.844,9.5,54.4,10 / 16,400032,2020-03-19 19:58:05:365
-14.705187,-12.076353,-0.407014,0.0,49.84213,24.037937,364.0,NaN,2.844,9.5,54.4,10 / 16,400532,2020-03-19 19:58:05:865
-3.711012,-6.210559,2.164359,0.0,49.84213,24.037937,364.0,NaN,2.844,9.5,54.4,10 / 16,401032,2020-03-19 19:58:06:365
-4.774038,-10.381259,-0.723049,0.0,49.84213,24.037937,364.0,NaN,2.844,9.5,54.4,10 / 16,401532,2020-03-19 19:58:06:865
-2.475604,-3.385401,-0.713472,0.0,49.84213,24.037937,364.0,NaN,2.844,9.5,54.4,10 / 16,402032,2020-03-19 19:58:07:365
-3.270479,-6.914454,0.004788,0.0,49.84213,24.037937,364.0,NaN,2.844,9.5,54.4,10 / 16,402532,2020-03-19 19:58:07:865
-7.699753,-11.300632,-0.972046,0.0,49.84213,24.037937,364.0,NaN,2.844,9.5,54.4,10 / 16,403032,2020-03-19 19:58:08:365
-9.859323,-2.384625,-2.240973,0.0,49.84213,24.037937,364.0,NaN,2.844,9.5,54.4,10 / 16,403532,2020-03-19 19:58:08:865
-10.960655,-9.615114,2.906561,0.0,49.84213,24.037937,364.0,NaN,2.844,9.5,54.4,10 / 16,404032,2020-03-19 19:58:09:365
-32.48932,-13.464991,-20.293253,0.0,49.84213,24.037937,364.0,NaN,2.844,9.5,54.4,10 / 16,404532,2020-03-19 19:58:09:865
-4.932055,-11.678916,-2.461239,0.0,49.84213,24.037937,364.0,NaN,2.844,9.5,54.4,10 / 16,405032,2020-03-19 19:58:10:365
-1.029507,-1.742979,-0.392649,0.0,49.84213,24.037937,364.0,NaN,2.844,9.5,54.4,10 / 16,405532,2020-03-19 19:58:10:865
-3.241749,-6.191406,-0.78051,0.0,49.84213,24.037937,364.0,NaN,2.844,9.5,54.4,10 / 16,406032,2020-03-19 19:58:11:365
-8.183381,-8.643068,-1.675941,0.0,49.84213,24.037937,364.0,NaN,2.844,9.5,54.4,10 / 16,406532,2020-03-19 19:58:11:865
-12.603078,-1.067814,-12.574347,0.0,49.84213,24.037937,364.0,NaN,2.844,9.5,54.4,10 / 16,407032,2020-03-19 19:58:12:365
-5.693412,-12.344504,0.919373,0.0,49.84213,24.037937,364.0,NaN,2.844,9.5,54.4,10 / 16,407532,2020-03-19 19:58:12:865
-0.282516,1.996764,9.035717,0.0,49.84213,24.037937,364.0,NaN,2.844,9.5,54.4,10 / 16,408032,2020-03-19 19:58:13:365
0.162806,-14.18325,-0.746991,0.0,49.84213,24.037937,364.0,NaN,2.844,9.5,54.4,10 / 16,408533,2020-03-19 19:58:13:866
-3.251326,-4.271256,-3.44765,0.0,49.84213,24.037937,364.0,NaN,2.844,9.5,54.4,10 / 16,409033,2020-03-19 19:58:14:366
-2.408567,-8.408437,0.014365,0.0,49.84213,24.037937,364.0,NaN,2.844,9.5,54.4,10 / 16,409533,2020-03-19 19:58:14:866
-6.651092,-10.050858,-5.568913,0.0,49.84213,24.037937,364.0,NaN,2.844,9.5,54.4,10 / 16,410032,2020-03-19 19:58:15:365
-1.853112,-4.290409,-6.392518,0.0,49.84213,24.037937,364.0,NaN,2.844,9.5,54.4,10 / 16,410532,2020-03-19 19:58:15:865
-2.604891,-10.965444,-2.331952,0.0,49.84213,24.037937,364.0,NaN,2.844,9.5,54.4,10 / 16,411032,2020-03-19 19:58:16:365
-11.382035,-10.879252,-0.837971,0.0,49.84213,24.037937,364.0,NaN,2.844,9.5,54.4,10 / 16,411532,2020-03-19 19:58:16:865
-7.551312,4.620809,-0.383072,0.0,49.84213,24.037937,364.0,NaN,2.844,9.5,54.4,10 / 16,412032,2020-03-19 19:58:17:365
-14.058752,-12.095507,4.314352,0.0,49.84213,24.037937,364.0,NaN,2.844,9.5,54.4,10 / 16,412532,2020-03-19 19:58:17:865
-12.306197,-10.400413,-15.289372,0.0,49.84213,24.037937,364.0,NaN,2.844,9.5,54.4,10 / 16,413032,2020-03-19 19:58:18:365
-2.724601,-11.415554,-0.234632,0.0,49.84213,24.037937,364.0,NaN,2.844,9.5,54.4,10 / 16,413532,2020-03-19 19:58:18:865
-3.102885,-0.876278,1.833959,0.0,49.84213,24.037937,364.0,NaN,2.844,9.5,54.4,10 / 16,414032,2020-03-19 19:58:19:365
-7.5561,-9.198523,-1.690306,0.0,49.84213,24.037937,364.0,NaN,2.844,9.5,54.4,10 / 16,414532,2020-03-19 19:58:19:865
-7.402871,-12.962208,-4.328717,0.0,49.84213,24.037937,364.0,NaN,2.844,9.5,54.4,10 / 16,415032,2020-03-19 19:58:20:365
-4.740519,-6.378153,-8.504205,0.0,49.84213,24.037937,364.0,NaN,2.844,9.5,54.4,10 / 16,415532,2020-03-19 19:58:20:865
-3.500323,-8.556877,0.416591,0.0,49.84213,24.037937,364.0,NaN,2.844,9.5,54.4,10 / 16,416032,2020-03-19 19:58:21:365
-4.836287,-9.284714,-2.169147,0.0,49.84213,24.037937,364.0,NaN,2.844,9.5,54.4,10 / 16,416532,2020-03-19 19:58:21:865
-3.533841,-8.365341,-1.958457,0.0,49.84213,24.037937,364.0,NaN,2.844,9.5,54.4,10 / 16,417032,2020-03-19 19:58:22:365
-7.742848,-9.035717,-2.37026,0.0,49.84213,24.037937,364.0,NaN,2.844,9.5,54.4,10 / 16,417533,2020-03-19 19:58:22:866
-2.432509,5.276821,2.39899,0.0,49.84213,24.037937,364.0,NaN,2.844,9.5,54.4,10 / 16,418033,2020-03-19 19:58:23:366
-4.989516,-9.624691,-0.474052,0.0,49.84213,24.037937,364.0,NaN,2.844,9.5,54.4,10 / 16,418533,2020-03-19 19:58:23:866
-2.839523,-4.113238,-2.250549,0.0,49.84213,24.037937,364.0,NaN,2.844,9.5,54.4,10 / 16,419032,2020-03-19 19:58:24:365
-6.023811,-6.05733,-1.762132,0.0,49.84213,24.037937,364.0,NaN,2.844,9.5,54.4,10 / 16,419532,2020-03-19 19:58:24:865
-7.426813,-9.868899,-1.206678,0.0,49.84213,24.037937,364.0,NaN,2.844,9.5,54.4,10 / 16,420032,2020-03-19 19:58:25:365
-0.158017,-4.304775,-6.789956,0.0,49.84213,24.037937,364.0,NaN,2.844,9.5,54.4,10 / 16,420532,2020-03-19 19:58:25:865
-3.313575,-7.675811,0.632069,0.0,49.84213,24.037937,364.0,NaN,2.844,9.5,54.4,10 / 16,421032,2020-03-19 19:58:26:365
-2.901772,-2.691083,-0.881066,0.0,49.84213,24.037937,364.0,NaN,2.844,9.5,54.4,10 / 16,421532,2020-03-19 19:58:26:865
-4.501099,-9.65821,-1.929727,0.0,49.84213,24.037937,364.0,NaN,2.844,9.5,54.4,10 / 16,422032,2020-03-19 19:58:27:365
-10.065224,-10.601525,2.284068,0.0,49.84213,24.037937,364.0,NaN,2.844,9.5,54.4,10 / 16,422532,2020-03-19 19:58:27:865
-11.013328,-15.749059,-18.171991,0.0,49.84213,24.037937,364.0,NaN,2.844,9.5,54.4,10 / 16,423032,2020-03-19 19:58:28:365
-7.043741,-7.608773,0.35913,0.0,49.84213,24.037937,364.0,NaN,2.844,9.5,54.4,10 / 16,423532,2020-03-19 19:58:28:865
-3.706224,-7.671022,-1.675941,0.0,49.84213,24.037937,364.0,NaN,2.844,9.5,54.4,10 / 16,424032,2020-03-19 19:58:29:365
-1.929727,-7.536947,-2.863465,0.0,49.84213,24.037937,364.0,NaN,2.844,9.5,54.4,10 / 16,424532,2020-03-19 19:58:29:865
-7.541735,-10.845734,-1.594538,0.0,49.84213,24.037937,364.0,NaN,2.844,9.5,54.4,10 / 16,425032,2020-03-19 19:58:30:365
-8.633492,-14.168885,-4.606444,0.0,49.84213,24.037937,364.0,NaN,2.844,9.5,54.4,10 / 16,425532,2020-03-19 19:58:30:865
-4.668693,-7.752425,-2.39899,0.0,49.84213,24.037937,364.0,NaN,2.844,9.5,54.4,10 / 16,426032,2020-03-19 19:58:31:365
-4.232949,-4.711789,-0.512359,0.0,49.84213,24.037937,364.0,NaN,2.844,9.5,54.4,10 / 16,426532,2020-03-19 19:58:31:865
-4.113238,-8.255207,-0.354342,0.0,49.84213,24.037937,364.0,NaN,2.844,9.5,54.4,10 / 16,427032,2020-03-19 19:58:32:365
-3.711012,-11.113884,-3.677494,0.0,49.84213,24.037937,364.0,NaN,2.844,9.5,54.4,10 / 16,427532,2020-03-19 19:58:32:865
-10.505757,-18.65562,-20.417751,0.0,49.84213,24.037937,364.0,NaN,2.844,9.5,54.4,10 / 16,428032,2020-03-19 19:58:33:365
-4.716577,-7.460332,-0.162806,0.0,49.84213,24.037937,364.0,NaN,2.844,9.5,54.4,10 / 16,428532,2020-03-19 19:58:33:865
-1.517924,-8.09719,0.392649,0.0,49.84213,24.037937,364.0,NaN,2.844,9.5,54.4,10 / 16,429032,2020-03-19 19:58:34:365
-0.632069,-14.164097,-2.475604,0.0,49.84213,24.037937,364.0,NaN,2.844,9.5,54.4,10 / 16,429532,2020-03-19 19:58:34:865
-8.681376,-10.251971,-2.509123,0.0,49.84213,24.037937,364.0,NaN,2.844,9.5,54.4,10 / 16,430032,2020-03-19 19:58:35:365
-8.748413,-17.836803,-3.160346,0.0,49.84213,24.037937,364.0,NaN,2.844,9.5,54.4,10 / 16,430532,2020-03-19 19:58:35:865
-3.964798,-13.713987,-2.456451,0.0,49.84213,24.037937,364.0,NaN,2.844,9.5,54.4,10 / 16,431032,2020-03-19 19:58:36:365
0.244209,-16.668432,-11.166556,0.0,49.84213,24.037937,364.0,NaN,2.844,9.5,54.4,10 / 16,431532,2020-03-19 19:58:36:865
-3.596091,-9.744401,-0.991199,0.0,49.84213,24.037937,364.0,NaN,2.844,9.5,54.4,10 / 16,432033,2020-03-19 19:58:37:366
-1.125275,-1.848324,1.94888,0.0,49.84213,24.037937,364.0,NaN,2.844,9.5,54.4,10 / 16,432533,2020-03-19 19:58:37:866
-7.311892,-5.477933,-2.662352,0.0,49.84213,24.037937,364.0,NaN,2.844,9.5,54.4,10 / 16,433032,2020-03-19 19:58:38:365
-12.105083,-14.197616,0.550666,0.0,49.84213,24.037937,364.0,NaN,2.844,9.5,54.4,10 / 16,433532,2020-03-19 19:58:38:865
-0.033519,4.218584,7.843405,0.0,49.84213,24.037937,364.0,NaN,2.844,9.5,54.4,10 / 16,434032,2020-03-19 19:58:39:365
-15.140931,-11.793838,6.081272,0.0,49.84213,24.037937,364.0,NaN,2.844,9.5,54.4,10 / 16,434532,2020-03-19 19:58:39:865
-14.719552,-17.693151,-7.192182,0.0,49.84213,24.037937,364.0,NaN,2.844,9.5,54.4,10 / 16,435032,2020-03-19 19:58:40:365
-3.399766,-11.75553,1.177947,0.0,49.84213,24.037937,364.0,NaN,2.844,9.5,54.4,10 / 16,435532,2020-03-19 19:58:40:865
-3.854665,-3.921702,-2.312799,0.0,49.84213,24.037937,364.0,NaN,2.844,9.5,54.4,10 / 16,436032,2020-03-19 19:58:41:365
-2.284068,-8.087613,2.164359,0.0,49.84213,24.037937,364.0,NaN,2.844,9.5,54.4,10 / 16,436532,2020-03-19 19:58:41:865
-1.034295,-12.593501,-0.684742,0.0,49.84213,24.037937,364.0,NaN,2.844,9.5,54.4,10 / 16,437032,2020-03-19 19:58:42:365
-8.643068,-15.437813,-3.246537,0.0,49.84213,24.037937,364.0,NaN,2.844,9.5,54.4,10 / 16,437532,2020-03-19 19:58:42:865
-4.414908,-13.589489,-3.725378,0.0,49.84213,24.037937,364.0,NaN,2.844,9.5,54.4,10 / 16,438032,2020-03-19 19:58:43:365
-0.699107,-15.289372,-5.971139,0.0,49.84213,24.037937,364.0,NaN,2.844,9.5,54.4,10 / 16,438532,2020-03-19 19:58:43:865
-3.375824,-13.01488,-2.75812,0.0,49.84213,24.037937,364.0,NaN,2.844,9.5,54.4,10 / 16,439033,2020-03-19 19:58:44:366
-3.399766,-17.080235,-7.948749,0.0,49.84213,24.037937,364.0,NaN,2.844,9.5,54.4,10 / 16,439532,2020-03-19 19:58:44:865
-4.726154,-8.772355,-0.071826,0.0,49.84213,24.037937,364.0,NaN,2.844,9.5,54.4,0 / 0,440033,2020-03-19 19:58:45:366
-3.960009,-1.206678,2.461239,0.0,49.84213,24.037937,364.0,NaN,2.844,9.5,54.4,0 / 0,440533,2020-03-19 19:58:45:866
-10.328587,-4.592078,-0.794875,0.0,49.84213,24.037937,364.0,NaN,2.844,9.5,54.4,0 / 3,441032,2020-03-19 19:58:46:365
-11.626244,-10.879252,-3.203442,0.0,49.84213,24.037937,364.0,NaN,2.844,9.5,54.4,0 / 3,441532,2020-03-19 19:58:46:865
-3.907337,-1.493982,17.0946,0.0,49.84213,24.037937,364.0,NaN,2.844,9.5,54.4,0 / 8,442032,2020-03-19 19:58:47:365
-4.252102,-11.473015,0.114922,0.0,49.84213,24.037937,364.0,NaN,2.844,9.5,54.4,0 / 8,442532,2020-03-19 19:58:47:865
-13.460202,-12.526464,-7.153875,0.0,49.84213,24.037937,364.0,NaN,2.844,9.5,54.4,0 / 19,443032,2020-03-19 19:58:48:365
-2.154781,-10.998962,-0.143652,0.0,49.84213,24.037937,364.0,NaN,2.844,9.5,54.4,0 / 19,443532,2020-03-19 19:58:48:865
-3.145981,-1.752556,0.062249,0.0,49.84213,24.037937,364.0,NaN,2.844,9.5,54.4,0 / 22,444032,2020-03-19 19:58:49:365
-0.143652,-9.380483,0.268151,0.0,49.84213,24.037937,364.0,NaN,2.844,9.5,54.4,0 / 22,444532,2020-03-19 19:58:49:865
-1.996764,-10.357317,-1.268927,0.0,49.84213,24.037937,364.0,NaN,2.844,9.5,54.4,0 / 24,445032,2020-03-19 19:58:50:365
-7.785944,-15.777789,-2.044648,0.0,49.84213,24.037937,358.0,NaN,5.004,9.5,338.6,10 / 24,445532,2020-03-19 19:58:50:865
-4.055777,-16.634912,-2.834735,0.0,49.842438,24.038843,358.0,NaN,5.004,26.0,338.6,10 / 24,446032,2020-03-19 19:58:51:365
-2.585738,-13.977349,-6.157887,0.0,49.842438,24.038843,358.0,NaN,5.004,26.0,338.6,10 / 24,446532,2020-03-19 19:58:51:865
-1.714248,-9.490616,-1.896208,0.0,49.842438,24.038843,358.0,NaN,5.004,26.0,338.6,10 / 24,447032,2020-03-19 19:58:52:365
-2.284068,-1.805228,1.872266,0.0,49.842438,24.038843,358.0,NaN,5.004,26.0,338.6,10 / 24,447532,2020-03-19 19:58:52:865
-5.851429,-8.312668,-1.335964,0.0,49.842438,24.038843,358.0,NaN,5.004,26.0,338.6,10 / 24,448032,2020-03-19 19:58:53:365
-4.817134,-2.087744,2.145205,0.0,49.842438,24.038843,358.0,NaN,5.004,26.0,338.6,10 / 24,448532,2020-03-19 19:58:53:865
-7.484274,-5.66947,-1.312023,0.0,49.842438,24.038843,358.0,NaN,5.004,26.0,338.6,10 / 24,449032,2020-03-19 19:58:54:365
-11.7268,-12.124237,-2.762909,0.0,49.842438,24.038843,358.0,NaN,5.004,26.0,338.6,10 / 24,449532,2020-03-19 19:58:54:865
-9.720459,9.921572,7.714118,0.0,49.842438,24.038843,358.0,NaN,5.004,26.0,338.6,10 / 24,450032,2020-03-19 19:58:55:365
-7.101202,-7.551312,-3.246537,0.0,49.842438,24.038843,358.0,NaN,5.004,26.0,338.6,10 / 24,450532,2020-03-19 19:58:55:865
-6.081272,-7.460332,-6.641515,0.0,49.842438,24.038843,358.0,NaN,5.004,26.0,338.6,10 / 24,451032,2020-03-19 19:58:56:365
-2.432509,-7.249643,-1.527501,0.0,49.842438,24.038843,358.0,NaN,5.004,26.0,338.6,10 / 24,451532,2020-03-19 19:58:56:865
-4.022259,-11.745954,-2.561796,0.0,49.842438,24.038843,358.0,NaN,5.004,26.0,338.6,10 / 24,452032,2020-03-19 19:58:57:365
-7.742848,-6.210559,-0.6608,0.0,49.842438,24.038843,358.0,NaN,5.004,26.0,338.6,10 / 24,452532,2020-03-19 19:58:57:865
-15.284584,-12.095507,1.489194,0.0,49.842438,24.038843,358.0,NaN,5.004,26.0,338.6,10 / 24,453032,2020-03-19 19:58:58:365
4.434062,-9.260772,-1.996764,0.0,49.842438,24.038843,358.0,NaN,5.004,26.0,338.6,10 / 24,453532,2020-03-19 19:58:58:865
-3.562572,-10.261548,-2.327164,0.0,49.842438,24.038843,358.0,NaN,5.004,26.0,338.6,10 / 24,454032,2020-03-19 19:58:59:365
-3.758896,-6.928819,-7.28795,0.0,49.842438,24.038843,358.0,NaN,5.004,26.0,338.6,10 / 24,454532,2020-03-19 19:58:59:865
-4.525041,-5.942408,-0.019154,0.0,49.842438,24.038843,358.0,NaN,5.004,26.0,338.6,10 / 24,455032,2020-03-19 19:59:00:365
-3.442862,-3.39019,1.752556,0.0,49.842438,24.038843,358.0,NaN,5.004,26.0,338.6,10 / 24,455532,2020-03-19 19:59:00:865
-3.605668,-7.493851,2.116475,0.0,49.842438,24.038843,358.0,NaN,5.004,26.0,338.6,10 / 24,456032,2020-03-19 19:59:01:365
-16.352398,-12.162544,5.449203,0.0,49.842438,24.038843,358.0,NaN,5.004,26.0,338.6,10 / 24,456532,2020-03-19 19:59:01:865
-3.217807,-8.068459,2.207454,0.0,49.842438,24.038843,358.0,NaN,5.004,26.0,338.6,10 / 24,457032,2020-03-19 19:59:02:365
-9.490616,-11.626244,1.182736,0.0,49.842438,24.038843,358.0,NaN,5.004,26.0,338.6,10 / 24,457532,2020-03-19 19:59:02:865
-2.509123,-4.572925,-9.370906,0.0,49.842438,24.038843,358.0,NaN,5.004,26.0,338.6,10 / 24,458032,2020-03-19 19:59:03:365
-2.63841,-11.870452,-4.13718,0.0,49.842438,24.038843,358.0,NaN,5.004,26.0,338.6,10 / 24,458532,2020-03-19 19:59:03:865
-3.773262,-2.628833,2.863465,0.0,49.842438,24.038843,358.0,NaN,5.004,26.0,338.6,10 / 24,459032,2020-03-19 19:59:04:365
-2.394202,-8.480263,-0.694318,0.0,49.842438,24.038843,358.0,NaN,5.004,26.0,338.6,10 / 24,459532,2020-03-19 19:59:04:865
-3.394978,-11.96622,-1.92015,0.0,49.842438,24.038843,358.0,NaN,5.004,26.0,338.6,10 / 24,460032,2020-03-19 19:59:05:365
-2.351106,5.870583,2.676718,0.0,49.842438,24.038843,358.0,NaN,5.004,26.0,338.6,10 / 24,460532,2020-03-19 19:59:05:865
-5.181052,-12.904747,0.21069,0.0,49.842438,24.038843,358.0,NaN,5.004,26.0,338.6,10 / 24,461032,2020-03-19 19:59:06:365
-1.977611,1.762132,6.363788,0.0,49.842438,24.038843,358.0,NaN,5.004,26.0,338.6,10 / 24,461532,2020-03-19 19:59:06:865
-5.410896,-11.774684,-3.414132,0.0,49.842438,24.038843,358.0,NaN,5.004,26.0,338.6,10 / 24,462032,2020-03-19 19:59:07:365
-10.970232,-17.027563,-12.243947,0.0,49.842438,24.038843,358.0,NaN,5.004,26.0,338.6,10 / 24,462532,2020-03-19 19:59:07:865
-4.525041,-9.332599,0.248997,0.0,49.842438,24.038843,358.0,NaN,5.004,26.0,338.6,10 / 24,463033,2020-03-19 19:59:08:366
-2.987964,-1.94888,2.312799,0.0,49.842438,24.038843,358.0,NaN,5.004,26.0,338.6,10 / 24,463533,2020-03-19 19:59:08:866
-3.203442,-9.121908,-0.454898,0.0,49.842438,24.038843,358.0,NaN,5.004,26.0,338.6,10 / 24,464033,2020-03-19 19:59:09:366
-3.29921,-11.353305,-4.759673,0.0,49.842438,24.038843,358.0,NaN,5.004,26.0,338.6,10 / 24,464532,2020-03-19 19:59:09:865
-11.343728,-12.574347,18.890251,0.0,49.842438,24.038843,358.0,NaN,5.004,26.0,338.6,10 / 24,465032,2020-03-19 19:59:10:365
-4.869806,-15.849615,-3.653552,0.0,49.842438,24.038843,358.0,NaN,5.004,26.0,338.6,10 / 24,465532,2020-03-19 19:59:10:865
-4.070143,-11.358093,-6.742072,0.0,49.842438,24.038843,358.0,NaN,5.004,26.0,338.6,10 / 24,466032,2020-03-19 19:59:11:365
-7.402871,-14.188039,-3.040636,0.0,49.842438,24.038843,358.0,NaN,5.004,26.0,338.6,10 / 24,466532,2020-03-19 19:59:11:865
-10.907983,-15.62456,-19.761742,0.0,49.842438,24.038843,358.0,NaN,5.004,26.0,338.6,10 / 24,467032,2020-03-19 19:59:12:365
-5.650316,-7.240066,-1.968034,0.0,49.842438,24.038843,358.0,NaN,5.004,26.0,338.6,10 / 24,467532,2020-03-19 19:59:12:865
-3.064578,-2.432509,1.604115,0.0,49.842438,24.038843,358.0,NaN,5.004,26.0,338.6,10 / 24,468032,2020-03-19 19:59:13:365
-8.705317,-4.707,-0.622492,0.0,49.842438,24.038843,358.0,NaN,5.004,26.0,338.6,10 / 24,468532,2020-03-19 19:59:13:865
-10.989386,-12.248735,-2.992752,0.0,49.842438,24.038843,358.0,NaN,5.004,26.0,338.6,10 / 24,469032,2020-03-19 19:59:14:365
-0.474052,-0.847547,15.528792,0.0,49.842438,24.038843,358.0,NaN,5.004,26.0,338.6,10 / 24,469532,2020-03-19 19:59:14:865
-4.046201,-11.923124,-2.312799,0.0,49.842438,24.038843,358.0,NaN,5.004,26.0,338.6,10 / 24,470032,2020-03-19 19:59:15:365
-7.16824,-12.531252,-16.548721,0.0,49.842438,24.038843,358.0,NaN,5.004,26.0,338.6,10 / 24,470532,2020-03-19 19:59:15:865
-5.549759,-10.611102,-0.215478,0.0,49.842438,24.038843,358.0,NaN,5.004,26.0,338.6,10 / 24,471032,2020-03-19 19:59:16:365
-4.10845,-8.240842,-10.955867,0.0,49.842438,24.038843,358.0,NaN,5.004,26.0,338.6,10 / 24,471532,2020-03-19 19:59:16:865
-3.801992,-7.326257,0.957681,0.0,49.842438,24.038843,358.0,NaN,5.004,26.0,338.6,10 / 24,472032,2020-03-19 19:59:17:365
-2.106897,-5.559336,-0.052672,0.0,49.842438,24.038843,358.0,NaN,5.004,26.0,338.6,10 / 24,472532,2020-03-19 19:59:17:865
-2.935291,-11.133038,-0.387861,0.0,49.842438,24.038843,358.0,NaN,5.004,26.0,338.6,10 / 24,473032,2020-03-19 19:59:18:365
-13.733141,-11.693281,3.572149,0.0,49.842438,24.038843,358.0,NaN,5.004,26.0,338.6,10 / 24,473533,2020-03-19 19:59:18:866
-5.707777,-9.303867,-3.083732,0.0,49.842438,24.038843,358.0,NaN,5.004,26.0,338.6,10 / 24,474032,2020-03-19 19:59:19:365
-1.891419,-12.89517,-2.336741,0.0,49.842438,24.038843,358.0,NaN,5.004,26.0,338.6,10 / 24,474532,2020-03-19 19:59:19:865
-0.430956,-7.752425,-2.901772,0.0,49.842438,24.038843,358.0,NaN,5.004,26.0,338.6,10 / 24,475032,2020-03-19 19:59:20:365
-0.656011,-13.158532,-1.695095,0.0,49.842438,24.038843,358.0,NaN,5.004,26.0,338.6,10 / 24,475532,2020-03-19 19:59:20:865
-3.452439,-3.86903,0.253785,0.0,49.842438,24.038843,358.0,NaN,5.004,26.0,338.6,10 / 24,476032,2020-03-19 19:59:21:365
-9.246407,-6.119579,0.703895,0.0,49.842438,24.038843,358.0,NaN,5.004,26.0,338.6,10 / 24,476532,2020-03-19 19:59:21:865
-13.862428,-11.654974,5.272033,0.0,49.842438,24.038843,358.0,NaN,5.004,26.0,338.6,10 / 24,477032,2020-03-19 19:59:22:365
-14.417883,-15.093047,-13.062764,0.0,49.842438,24.038843,358.0,NaN,5.004,26.0,338.6,10 / 24,477532,2020-03-19 19:59:22:865
-3.433285,-11.707646,-1.968034,0.0,49.842438,24.038843,358.0,NaN,5.004,26.0,338.6,10 / 24,478032,2020-03-19 19:59:23:365
-3.045424,-3.514688,-3.184288,0.0,49.842438,24.038843,358.0,NaN,5.004,26.0,338.6,10 / 24,478532,2020-03-19 19:59:23:865
0.995988,-13.450625,0.095768,0.0,49.842438,24.038843,358.0,NaN,5.004,26.0,338.6,10 / 24,479032,2020-03-19 19:59:24:365
-3.653552,-2.762909,0.497994,0.0,49.842438,24.038843,358.0,NaN,5.004,26.0,338.6,10 / 24,479532,2020-03-19 19:59:24:865
-2.987964,-7.402871,-0.651223,0.0,49.842438,24.038843,358.0,NaN,5.004,26.0,338.6,10 / 24,480032,2020-03-19 19:59:25:365
-1.331176,-11.109096,-1.015141,0.0,49.842438,24.038843,358.0,NaN,5.004,26.0,338.6,10 / 24,480532,2020-03-19 19:59:25:865
-9.821015,-13.254301,15.150508,0.0,49.842438,24.038843,358.0,NaN,5.004,26.0,338.6,10 / 24,481033,2020-03-19 19:59:26:366
-4.544194,-12.852075,-4.10845,0.0,49.842438,24.038843,358.0,NaN,5.004,26.0,338.6,10 / 24,481532,2020-03-19 19:59:26:865
-4.663905,-13.01488,-9.715671,0.0,49.842438,24.038843,358.0,NaN,5.004,26.0,338.6,10 / 24,482032,2020-03-19 19:59:27:365
-4.726154,-6.727707,-0.876278,0.0,49.842438,24.038843,358.0,NaN,5.004,26.0,338.6,10 / 24,482532,2020-03-19 19:59:27:865
-13.962984,-16.270994,-19.517532,0.0,49.842438,24.038843,358.0,NaN,5.004,26.0,338.6,10 / 24,483032,2020-03-19 19:59:28:365
-4.472368,-7.522581,-1.029507,0.0,49.842438,24.038843,358.0,NaN,5.004,26.0,338.6,10 / 24,483532,2020-03-19 19:59:28:865
-3.280056,-1.656788,1.49877,0.0,49.842438,24.038843,358.0,NaN,5.004,26.0,338.6,10 / 24,484032,2020-03-19 19:59:29:365
-4.67827,-8.552089,-0.311246,0.0,49.842438,24.038843,358.0,NaN,5.004,26.0,338.6,10 / 24,484532,2020-03-19 19:59:29:865
-5.027823,-11.865664,-1.149217,0.0,49.842438,24.038843,358.0,NaN,5.004,26.0,338.6,10 / 24,485032,2020-03-19 19:59:30:365
-2.959233,3.366248,10.936713,0.0,49.842438,24.038843,358.0,NaN,5.004,26.0,338.6,10 / 24,485532,2020-03-19 19:59:30:865
-6.943185,-10.726024,-3.41892,0.0,49.842438,24.038843,358.0,NaN,5.004,26.0,338.6,10 / 24,486033,2020-03-19 19:59:31:366
-9.193734,-14.111424,-14.221559,0.0,49.842438,24.038843,358.0,NaN,5.004,26.0,338.6,10 / 24,486532,2020-03-19 19:59:31:865
-4.745308,-7.848193,-0.871489,0.0,49.842438,24.038843,358.0,NaN,5.004,26.0,338.6,10 / 24,487032,2020-03-19 19:59:32:365
-2.092532,-3.830723,0.172383,0.0,49.842438,24.038843,358.0,NaN,5.004,26.0,338.6,10 / 24,487532,2020-03-19 19:59:32:865
-3.380613,-5.808333,-0.344765,0.0,49.842438,24.038843,358.0,NaN,5.004,26.0,338.6,10 / 24,488033,2020-03-19 19:59:33:366
-2.403778,-4.807557,2.240973,0.0,49.842438,24.038843,358.0,NaN,5.004,26.0,338.6,10 / 24,488533,2020-03-19 19:59:33:866
-5.592855,-7.048529,1.575385,0.0,49.842438,24.038843,358.0,NaN,5.004,26.0,338.6,10 / 24,489033,2020-03-19 19:59:34:366
-16.807297,-11.200075,5.171476,0.0,49.842438,24.038843,358.0,NaN,5.004,26.0,338.6,10 / 24,489533,2020-03-19 19:59:34:866
-17.78413,-20.762518,-11.410766,0.0,49.842438,24.038843,358.0,NaN,5.004,26.0,338.6,10 / 24,490032,2020-03-19 19:59:35:365
-3.768473,-11.659762,-1.316811,0.0,49.842438,24.038843,358.0,NaN,5.004,26.0,338.6,10 / 24,490532,2020-03-19 19:59:35:865
-3.610456,-4.146757,-1.182736,0.0,49.842438,24.038843,358.0,NaN,5.004,26.0,338.6,10 / 24,491032,2020-03-19 19:59:36:365
-4.027047,-6.196194,1.307234,0.0,49.842438,24.038843,358.0,NaN,5.004,26.0,338.6,10 / 24,491532,2020-03-19 19:59:36:865
-2.394202,-4.266467,2.633622,0.0,49.842438,24.038843,358.0,NaN,5.004,26.0,338.6,10 / 24,492032,2020-03-19 19:59:37:365
-3.811569,-9.251195,3.462016,0.0,49.842438,24.038843,358.0,NaN,5.004,26.0,338.6,10 / 24,492532,2020-03-19 19:59:37:865
-14.326903,-10.649409,4.266468,0.0,49.842438,24.038843,358.0,NaN,5.004,26.0,338.6,10 / 24,493032,2020-03-19 19:59:38:365
0.799663,-16.591818,-6.153098,0.0,49.842438,24.038843,358.0,NaN,5.004,26.0,338.6,10 / 24,493532,2020-03-19 19:59:38:865
-7.024587,-10.089166,-4.443638,0.0,49.842438,24.038843,358.0,NaN,5.004,26.0,338.6,10 / 24,494032,2020-03-19 19:59:39:365
2.796428,-6.38773,-4.563348,0.0,49.842438,24.038843,358.0,NaN,5.004,26.0,338.6,10 / 24,494532,2020-03-19 19:59:39:865
0.023942,-12.732365,-4.19943,0.0,49.842438,24.038843,358.0,NaN,5.004,26.0,338.6,10 / 24,495032,2020-03-19 19:59:40:365
-2.695871,-2.724601,2.011129,0.0,49.842438,24.038843,358.0,NaN,5.004,26.0,338.6,10 / 24,495532,2020-03-19 19:59:40:865
-4.213795,-6.607996,0.229843,0.0,49.842438,24.038843,358.0,NaN,5.004,26.0,338.6,10 / 24,496032,2020-03-19 19:59:41:365
-3.706224,-11.951855,-4.089296,0.0,49.842438,24.038843,358.0,NaN,5.004,26.0,338.6,10 / 24,496532,2020-03-19 19:59:41:865
-5.224148,-4.127603,17.54471,0.0,49.842438,24.038843,358.0,NaN,5.004,26.0,338.6,10 / 24,497032,2020-03-19 19:59:42:365
-3.845088,-14.355634,-0.723049,0.0,49.842438,24.038843,358.0,NaN,5.004,26.0,338.6,10 / 24,497533,2020-03-19 19:59:42:866
-4.448426,8.078037,2.604892,0.0,49.842438,24.038843,358.0,NaN,5.004,26.0,338.6,10 / 24,498032,2020-03-19 19:59:43:365
-4.817134,-12.038046,-1.656788,0.0,49.842438,24.038843,358.0,NaN,5.004,26.0,338.6,10 / 24,498532,2020-03-19 19:59:43:865
-15.428236,-15.5671,-19.096153,0.0,49.842438,24.038843,358.0,NaN,5.004,26.0,338.6,10 / 24,499032,2020-03-19 19:59:44:365
-7.73806,-6.143522,-1.067814,0.0,49.842438,24.038843,358.0,NaN,5.004,26.0,338.6,10 / 24,499532,2020-03-19 19:59:44:865
-3.093309,-3.399766,1.891419,0.0,49.842438,24.038843,358.0,NaN,5.004,26.0,338.6,10 / 24,500032,2020-03-19 19:59:45:365
-8.690952,-3.552995,-0.842759,0.0,49.842438,24.038843,358.0,NaN,5.004,26.0,338.6,10 / 24,500532,2020-03-19 19:59:45:865
-13.053187,-10.635044,-3.476381,0.0,49.842438,24.038843,358.0,NaN,5.004,26.0,338.6,10 / 24,501032,2020-03-19 19:59:46:365
2.944868,2.710236,14.178462,0.0,49.842438,24.038843,358.0,NaN,5.004,26.0,338.6,10 / 24,501532,2020-03-19 19:59:46:865
-17.21431,-12.650962,6.847417,0.0,49.842438,24.038843,358.0,NaN,5.004,26.0,338.6,10 / 24,502032,2020-03-19 19:59:47:365
-7.220912,-26.877308,4.486734,0.0,49.842438,24.038843,358.0,NaN,5.004,26.0,338.6,10 / 24,502532,2020-03-19 19:59:47:865
-4.424484,-10.338163,-0.790087,0.0,49.842438,24.038843,358.0,NaN,5.004,26.0,338.6,10 / 24,503032,2020-03-19 19:59:48:365
-2.801216,-4.127603,-3.332729,0.0,49.842438,24.038843,358.0,NaN,5.004,26.0,338.6,0 / 0,503532,2020-03-19 19:59:48:865
-4.089296,-8.010998,0.488417,0.0,49.842438,24.038843,358.0,NaN,5.004,26.0,338.6,0 / 0,504032,2020-03-19 19:59:49:365
-2.973598,-4.381389,2.418144,0.0,49.842438,24.038843,358.0,NaN,5.004,26.0,338.6,0 / 5,504532,2020-03-19 19:59:49:865
-5.39653,-6.919243,2.987964,0.0,49.842438,24.038843,358.0,NaN,5.004,26.0,338.6,0 / 5,505032,2020-03-19 19:59:50:365
-16.850391,-12.799402,6.47871,0.0,49.8431,24.0399,333.0,NaN,4.896,31.500002,0.0,9 / 15,505532,2020-03-19 19:59:50:865
-17.00841,-27.418398,-12.143391,0.0,49.8431,24.0399,333.0,NaN,4.896,31.500002,0.0,9 / 15,506032,2020-03-19 19:59:51:365
-14.058752,-11.736377,2.710236,0.0,49.8431,24.0399,333.0,NaN,4.896,31.500002,0.0,9 / 15,506532,2020-03-19 19:59:51:865
-11.774684,-14.140155,-7.848193,0.0,49.8431,24.0399,333.0,NaN,4.896,31.500002,0.0,9 / 15,507032,2020-03-19 19:59:52:365
-2.892196,-10.606314,-0.991199,0.0,49.8431,24.0399,333.0,NaN,4.896,31.500002,0.0,9 / 15,507532,2020-03-19 19:59:52:865
-3.385401,-1.977611,-0.057461,0.0,49.8431,24.0399,333.0,NaN,4.896,31.500002,0.0,9 / 15,508032,2020-03-19 19:59:53:365
-1.450886,-8.925584,-1.192312,0.0,49.8431,24.0399,333.0,NaN,4.896,31.500002,0.0,9 / 15,508532,2020-03-19 19:59:53:865
-4.453215,-4.453215,0.694319,0.0,49.8431,24.0399,333.0,NaN,4.896,31.500002,0.0,9 / 15,509032,2020-03-19 19:59:54:365
-1.130063,-9.619903,2.202666,0.0,49.8431,24.0399,333.0,NaN,4.896,31.500002,0.0,9 / 15,509532,2020-03-19 19:59:54:865
-15.844827,-11.075577,4.141969,0.0,49.8431,24.0399,333.0,NaN,4.896,31.500002,0.0,9 / 15,510032,2020-03-19 19:59:55:365
-6.014234,-6.689399,-1.422156,0.0,49.8431,24.0399,333.0,NaN,4.896,31.500002,0.0,9 / 15,510533,2020-03-19 19:59:55:866
-1.173159,-9.509769,-1.278504,0.0,49.8431,24.0399,333.0,NaN,4.896,31.500002,0.0,9 / 15,511032,2020-03-19 19:59:56:365
-3.825934,-1.996764,-7.067683,0.0,49.8431,24.0399,333.0,NaN,4.896,31.500002,0.0,9 / 15,511532,2020-03-19 19:59:56:865
-4.774038,-5.540182,0.397437,0.0,49.8431,24.0399,333.0,NaN,4.896,31.500002,0.0,9 / 15,512032,2020-03-19 19:59:57:365
