ACCELEROMETER X (m/s²),ACCELEROMETER Y (m/s²),ACCELEROMETER Z (m/s²),PROXIMITY (m),LOCATION Latitude : ,LOCATION Longitude : ,LOCATION Altitude ( m),LOCATION Altitude-google ( m),LOCATION Speed ( Kmh),LOCATION Accuracy ( m),LOCATION ORIENTATION (°),Satellites in range,Time since start in ms ,YYYY-MO-DD HH-MI-SS_SSS
1.719037,2.877831,8.8777,8.0,,,,NaN,,,,0 / 6,25,2020-03-19 19:00:18:441
12.512098,-7.785944,5.291186,8.0,,,,NaN,,,,0 / 7,525,2020-03-19 19:00:18:941
5.856218,-10.448297,6.325481,0.0,,,,NaN,,,,0 / 7,1026,2020-03-19 19:00:19:442
9.677363,-10.860099,8.60955,0.0,,,,NaN,,,,0 / 7,1527,2020-03-19 19:00:19:943
12.014104,-14.858416,-5.93762,0.0,,,,NaN,,,,0 / 8,2026,2020-03-19 19:00:20:442
3.428497,-4.304775,-2.394202,0.0,49.831573,24.040497,308.0,NaN,5.796,23.0,46.3,11 / 11,2526,2020-03-19 19:00:20:942
9.275137,-9.840169,0.320823,0.0,49.831573,24.040497,308.0,NaN,5.796,23.0,46.3,11 / 11,3026,2020-03-19 19:00:21:442
-2.48997,-2.657564,2.590526,0.0,49.831573,24.040497,308.0,NaN,5.796,23.0,46.3,11 / 11,3525,2020-03-19 19:00:21:941
3.830723,-7.762002,1.168371,0.0,49.831573,24.040497,308.0,NaN,5.796,23.0,46.3,11 / 11,4025,2020-03-19 19:00:22:441
-1.561019,-3.706224,2.336741,0.0,49.831573,24.040497,308.0,NaN,5.796,23.0,46.3,11 / 11,4526,2020-03-19 19:00:22:942
3.634398,-6.962338,-0.6608,0.0,49.831573,24.040497,308.0,NaN,5.796,23.0,46.3,11 / 11,5026,2020-03-19 19:00:23:442
1.244985,-4.429273,1.958457,0.0,49.831573,24.040497,308.0,NaN,5.796,23.0,46.3,11 / 11,5526,2020-03-19 19:00:23:942
8.365341,-10.151415,2.949657,0.0,49.831573,24.040497,308.0,NaN,5.796,23.0,46.3,11 / 11,6026,2020-03-19 19:00:24:442
-5.401319,-19.694704,5.391742,0.0,49.831573,24.040497,308.0,NaN,5.796,23.0,46.3,11 / 11,6526,2020-03-19 19:00:24:942
-3.29921,-2.288857,22.151154,0.0,49.831573,24.040497,308.0,NaN,5.796,23.0,46.3,11 / 11,7026,2020-03-19 19:00:25:442
4.716578,-13.029245,-2.576161,0.0,49.831573,24.040497,308.0,NaN,5.796,23.0,46.3,11 / 11,7526,2020-03-19 19:00:25:942
3.648764,-19.369093,-22.869415,0.0,49.831573,24.040497,308.0,NaN,5.796,23.0,46.3,11 / 11,8026,2020-03-19 19:00:26:442
5.564125,-11.247959,-0.943315,0.0,49.831573,24.040497,308.0,NaN,5.796,23.0,46.3,11 / 11,8526,2020-03-19 19:00:26:942
6.842629,-15.552734,-11.48738,0.0,49.831573,24.040497,308.0,NaN,5.796,23.0,46.3,11 / 11,9026,2020-03-19 19:00:27:442
4.29041,-8.987833,-2.825158,0.0,49.831573,24.040497,308.0,NaN,5.796,23.0,46.3,11 / 11,9526,2020-03-19 19:00:27:942
-2.647987,-2.03986,2.844312,0.0,49.831573,24.040497,308.0,NaN,5.796,23.0,46.3,11 / 11,10026,2020-03-19 19:00:28:442
2.379837,-8.030152,1.752556,0.0,49.831573,24.040497,308.0,NaN,5.796,23.0,46.3,11 / 11,10526,2020-03-19 19:00:28:942
7.987057,-8.049306,-0.244209,0.0,49.831573,24.040497,308.0,NaN,5.796,23.0,46.3,11 / 11,11025,2020-03-19 19:00:29:441
6.909666,-15.021221,-2.207454,0.0,49.831573,24.040497,308.0,NaN,5.796,23.0,46.3,11 / 11,11526,2020-03-19 19:00:29:942
-7.331045,-15.83525,0.555455,0.0,49.831573,24.040497,308.0,NaN,5.796,23.0,46.3,11 / 11,12025,2020-03-19 19:00:30:441
7.393295,-12.100295,-1.537077,0.0,49.831573,24.040497,308.0,NaN,5.796,23.0,46.3,11 / 11,12526,2020-03-19 19:00:30:942
-9.32781,-21.337126,9.351752,0.0,49.831573,24.040497,308.0,NaN,5.796,23.0,46.3,11 / 11,13026,2020-03-19 19:00:31:442
0.588974,-10.328587,13.196839,0.0,49.831573,24.040497,308.0,NaN,5.796,23.0,46.3,11 / 11,13526,2020-03-19 19:00:31:942
2.710236,-12.291832,-2.920926,0.0,49.831573,24.040497,308.0,NaN,5.796,23.0,46.3,11 / 11,14026,2020-03-19 19:00:32:442
-0.976834,-10.726024,-16.208746,0.0,49.831573,24.040497,308.0,NaN,5.796,23.0,46.3,11 / 11,14526,2020-03-19 19:00:32:942
-1.154005,-8.197746,-1.632845,0.0,49.831573,24.040497,308.0,NaN,5.796,23.0,46.3,11 / 11,15026,2020-03-19 19:00:33:442
-1.13964,-5.48751,2.475605,0.0,49.831573,24.040497,308.0,NaN,5.796,23.0,46.3,11 / 11,15526,2020-03-19 19:00:33:942
-3.720589,-7.632715,0.282516,0.0,49.831573,24.040497,308.0,NaN,5.796,23.0,46.3,11 / 11,16026,2020-03-19 19:00:34:442
-10.04607,-18.818426,8.51857,0.0,49.831573,24.040497,308.0,NaN,5.796,23.0,46.3,11 / 11,16525,2020-03-19 19:00:34:941
-11.161768,-26.819847,-4.999093,0.0,49.831573,24.040497,308.0,NaN,5.796,23.0,46.3,11 / 11,17026,2020-03-19 19:00:35:442
-10.740389,-18.344374,0.78051,0.0,49.831573,24.040497,308.0,NaN,5.796,23.0,46.3,11 / 11,17526,2020-03-19 19:00:35:942
-0.052672,-22.467188,-14.417883,0.0,49.831573,24.040497,308.0,NaN,5.796,23.0,46.3,11 / 11,18026,2020-03-19 19:00:36:442
-0.004788,-14.211981,-2.566584,0.0,49.831573,24.040497,308.0,NaN,5.796,23.0,46.3,11 / 11,18526,2020-03-19 19:00:36:942
-6.406883,-16.558298,-11.827356,0.0,49.831573,24.040497,308.0,NaN,5.796,23.0,46.3,11 / 11,19025,2020-03-19 19:00:37:441
1.915361,-10.242394,0.636858,0.0,49.831573,24.040497,308.0,NaN,5.796,23.0,46.3,11 / 11,19526,2020-03-19 19:00:37:942
-3.169923,-1.61848,3.169923,0.0,49.831573,24.040497,308.0,NaN,5.796,23.0,46.3,11 / 11,20026,2020-03-19 19:00:38:442
-1.70946,-7.163451,1.690306,0.0,49.831573,24.040497,308.0,NaN,5.796,23.0,46.3,11 / 11,20526,2020-03-19 19:00:38:942
1.584962,-9.351752,-0.081403,0.0,49.831573,24.040497,308.0,NaN,5.796,23.0,46.3,11 / 11,21026,2020-03-19 19:00:39:442
3.031059,-19.10094,-3.375824,0.0,49.831573,24.040497,308.0,NaN,5.796,23.0,46.3,11 / 11,21526,2020-03-19 19:00:39:942
-9.198523,-12.301409,3.39019,0.0,49.831573,24.040497,308.0,NaN,5.796,23.0,46.3,11 / 11,22026,2020-03-19 19:00:40:442
-2.475604,-8.566454,-0.009577,0.0,49.831573,24.040497,308.0,NaN,5.796,23.0,46.3,11 / 11,22526,2020-03-19 19:00:40:942
-15.121778,-18.784906,5.688624,0.0,49.831573,24.040497,308.0,NaN,5.796,23.0,46.3,11 / 11,23026,2020-03-19 19:00:41:442
-25.096022,-28.347347,-6.74686,0.0,49.831573,24.040497,308.0,NaN,5.796,23.0,46.3,11 / 11,23526,2020-03-19 19:00:41:942
-3.351882,-14.025233,-2.394202,0.0,49.831573,24.040497,308.0,NaN,5.796,23.0,46.3,11 / 11,24026,2020-03-19 19:00:42:442
-13.986926,-16.141708,-19.589357,0.0,49.831573,24.040497,308.0,NaN,5.796,23.0,46.3,11 / 11,24526,2020-03-19 19:00:42:942
-5.386954,-6.301539,-3.682282,0.0,49.831573,24.040497,308.0,NaN,5.796,23.0,46.3,11 / 11,25026,2020-03-19 19:00:43:442
-1.37906,-2.1883,3.586514,0.0,49.831573,24.040497,308.0,NaN,5.796,23.0,46.3,11 / 11,25526,2020-03-19 19:00:43:942
-2.269703,-7.101202,-0.861913,0.0,49.831573,24.040497,308.0,NaN,5.796,23.0,46.3,11 / 11,26026,2020-03-19 19:00:44:442
-0.943315,-5.147533,1.374272,0.0,49.831573,24.040497,308.0,NaN,5.796,23.0,46.3,11 / 11,26526,2020-03-19 19:00:44:942
0.263362,-14.235924,-5.300762,0.0,49.831573,24.040497,308.0,NaN,5.796,23.0,46.3,11 / 11,27026,2020-03-19 19:00:45:442
-0.995988,-2.461239,2.964022,0.0,49.831573,24.040497,308.0,NaN,5.796,23.0,46.3,11 / 11,27526,2020-03-19 19:00:45:942
-6.258443,-3.667917,1.321599,0.0,49.831573,24.040497,308.0,NaN,5.796,23.0,46.3,11 / 11,28026,2020-03-19 19:00:46:442
-8.283937,-12.813767,-0.881066,0.0,49.831573,24.040497,308.0,NaN,5.796,23.0,46.3,11 / 11,28526,2020-03-19 19:00:46:942
-8.446744,5.770026,-18.83758,0.0,49.831573,24.040497,308.0,NaN,5.796,23.0,46.3,11 / 11,29026,2020-03-19 19:00:47:442
-2.470816,-12.761095,-3.351882,0.0,49.831573,24.040497,308.0,NaN,5.796,23.0,46.3,11 / 11,29526,2020-03-19 19:00:47:942
-6.971915,-12.368446,-12.411542,0.0,49.831573,24.040497,308.0,NaN,5.796,23.0,46.3,11 / 11,30026,2020-03-19 19:00:48:442
-0.172383,-10.591949,-0.454898,0.0,49.831573,24.040497,308.0,NaN,5.796,23.0,46.3,11 / 11,30526,2020-03-19 19:00:48:942
-2.700659,-2.475604,2.456451,0.0,49.831573,24.040497,308.0,NaN,5.796,23.0,46.3,11 / 11,31026,2020-03-19 19:00:49:442
-1.125275,-12.703634,-6.406883,0.0,49.831573,24.040497,308.0,NaN,5.796,23.0,46.3,11 / 11,31526,2020-03-19 19:00:49:942
-3.246537,-2.509123,-3.045424,0.0,49.831573,24.040497,308.0,NaN,5.796,23.0,46.3,11 / 11,32026,2020-03-19 19:00:50:442
-1.972822,-7.924807,1.221043,0.0,49.831573,24.040497,308.0,NaN,5.796,23.0,46.3,11 / 11,32526,2020-03-19 19:00:50:942
-1.661576,-1.489193,2.571373,0.0,49.831573,24.040497,308.0,NaN,5.796,23.0,46.3,11 / 11,33026,2020-03-19 19:00:51:442
-5.377377,-6.335057,-0.138864,0.0,49.831573,24.040497,308.0,NaN,5.796,23.0,46.3,11 / 11,33526,2020-03-19 19:00:51:942
-5.813122,-11.291056,-0.823605,0.0,49.831573,24.040497,308.0,NaN,5.796,23.0,46.3,11 / 11,34026,2020-03-19 19:00:52:442
-5.372588,-21.255722,-1.771709,0.0,49.831573,24.040497,308.0,NaN,5.796,23.0,46.3,11 / 11,34526,2020-03-19 19:00:52:942
-7.010222,-14.800955,3.754108,0.0,49.831573,24.040497,308.0,NaN,5.796,23.0,46.3,11 / 11,35026,2020-03-19 19:00:53:442
-7.110779,-8.394072,-7.393295,0.0,49.831573,24.040497,308.0,NaN,5.796,23.0,46.3,11 / 11,35525,2020-03-19 19:00:53:941
-11.180922,-12.564771,4.750097,0.0,49.831573,24.040497,308.0,NaN,5.796,23.0,46.3,11 / 11,36026,2020-03-19 19:00:54:442
-16.773777,-22.515072,-11.319786,0.0,49.831573,24.040497,308.0,NaN,5.796,23.0,46.3,11 / 11,36526,2020-03-19 19:00:54:942
-4.146757,-11.405977,-1.70946,0.0,49.831573,24.040497,308.0,NaN,5.796,23.0,46.3,11 / 11,37026,2020-03-19 19:00:55:442
-3.385401,-9.279925,-8.355764,0.0,49.831573,24.040497,308.0,NaN,5.796,23.0,46.3,11 / 11,37526,2020-03-19 19:00:55:942
-0.287304,-8.743625,-1.977611,0.0,49.831573,24.040497,308.0,NaN,5.796,23.0,46.3,11 / 11,38026,2020-03-19 19:00:56:442
1.302446,-4.410119,0.919373,0.0,49.831573,24.040497,308.0,NaN,5.796,23.0,46.3,11 / 11,38526,2020-03-19 19:00:56:942
-2.896984,-10.850522,2.322376,0.0,49.831573,24.040497,308.0,NaN,5.796,23.0,46.3,11 / 11,39026,2020-03-19 19:00:57:442
0.842759,-17.089811,-2.590526,0.0,49.831573,24.040497,308.0,NaN,5.796,23.0,46.3,11 / 11,39525,2020-03-19 19:00:57:941
-10.304645,-2.437297,4.29041,0.0,49.831573,24.040497,308.0,NaN,5.796,23.0,46.3,11 / 11,40025,2020-03-19 19:00:58:441
0.756568,-17.717093,-4.807557,0.0,49.831573,24.040497,308.0,NaN,5.796,23.0,46.3,11 / 11,40526,2020-03-19 19:00:58:942
-8.044517,-4.544194,9.346964,0.0,49.831573,24.040497,308.0,NaN,5.796,23.0,46.3,11 / 11,41025,2020-03-19 19:00:59:441
8.317456,-12.636597,-2.097321,0.0,49.831573,24.040497,308.0,NaN,5.796,23.0,46.3,11 / 11,41526,2020-03-19 19:00:59:942
3.648764,-8.082824,-8.365341,0.0,49.831573,24.040497,308.0,NaN,5.796,23.0,46.3,11 / 11,42025,2020-03-19 19:01:00:441
2.590526,-9.169792,-1.034295,0.0,49.831573,24.040497,308.0,NaN,5.796,23.0,46.3,11 / 11,42526,2020-03-19 19:01:00:942
-2.059013,-4.304775,1.35033,0.0,49.831573,24.040497,308.0,NaN,5.796,23.0,46.3,11 / 11,43026,2020-03-19 19:01:01:442
2.715025,-6.363788,3.193865,0.0,49.831573,24.040497,308.0,NaN,5.796,23.0,46.3,11 / 11,43526,2020-03-19 19:01:01:942
6.588843,-9.083601,2.078167,0.0,49.831573,24.040497,308.0,NaN,5.796,23.0,46.3,11 / 11,44026,2020-03-19 19:01:02:442
3.394978,-6.861782,0.603339,0.0,49.831573,24.040497,308.0,NaN,5.796,23.0,46.3,11 / 11,44526,2020-03-19 19:01:02:942
3.39019,-9.222465,0.909797,0.0,49.831573,24.040497,308.0,NaN,5.796,23.0,46.3,11 / 11,45025,2020-03-19 19:01:03:441
14.346057,-15.777789,-0.943315,0.0,49.831573,24.040497,308.0,NaN,5.796,23.0,46.3,11 / 11,45526,2020-03-19 19:01:03:942
-1.106121,-13.560759,-2.355894,0.0,49.831573,24.040497,308.0,NaN,5.796,23.0,46.3,11 / 11,46026,2020-03-19 19:01:04:442
1.905785,-14.939818,-7.814674,0.0,49.831573,24.040497,308.0,NaN,5.796,23.0,46.3,11 / 11,46526,2020-03-19 19:01:04:942
3.557784,-11.645397,1.244985,0.0,49.831573,24.040497,308.0,NaN,5.796,23.0,46.3,11 / 11,47025,2020-03-19 19:01:05:441
-0.301669,-3.845088,-0.181959,0.0,49.831573,24.040497,308.0,NaN,5.796,23.0,46.3,11 / 11,47526,2020-03-19 19:01:05:942
3.260903,-7.709329,0.761356,0.0,49.831573,24.040497,308.0,NaN,5.796,23.0,46.3,11 / 11,48026,2020-03-19 19:01:06:442
2.509123,-5.592855,1.417368,0.0,49.831573,24.040497,308.0,NaN,5.796,23.0,46.3,11 / 11,48526,2020-03-19 19:01:06:942
2.911349,-7.666234,0.148441,0.0,49.831573,24.040497,308.0,NaN,5.796,23.0,46.3,11 / 11,49026,2020-03-19 19:01:07:442
-1.144428,-2.959233,2.48997,0.0,49.831573,24.040497,308.0,NaN,5.796,23.0,46.3,11 / 11,49525,2020-03-19 19:01:07:941
-4.328717,-7.479486,-0.938527,0.0,49.831573,24.040497,308.0,NaN,5.796,23.0,46.3,11 / 11,50026,2020-03-19 19:01:08:442
-0.440533,-13.757083,-3.193865,0.0,49.831573,24.040497,308.0,NaN,5.796,23.0,46.3,11 / 11,50526,2020-03-19 19:01:08:942
-5.319916,-3.122039,12.698846,0.0,49.831573,24.040497,308.0,NaN,5.796,23.0,46.3,11 / 11,51026,2020-03-19 19:01:09:442
6.291962,-12.459426,-1.632845,0.0,49.831573,24.040497,308.0,NaN,5.796,23.0,46.3,11 / 11,51526,2020-03-19 19:01:09:942
4.999093,-15.318103,-8.978256,0.0,49.831573,24.040497,308.0,NaN,5.796,23.0,46.3,11 / 11,52026,2020-03-19 19:01:10:442
3.490746,-10.117896,-3.433285,0.0,49.831573,24.040497,308.0,NaN,5.796,23.0,46.3,11 / 11,52526,2020-03-19 19:01:10:942
-2.322375,-1.335964,1.968034,0.0,49.831573,24.040497,308.0,NaN,5.796,23.0,46.3,11 / 11,53026,2020-03-19 19:01:11:442
-1.307234,-8.226476,-2.42772,0.0,49.831573,24.040497,308.0,NaN,5.796,23.0,46.3,11 / 11,53526,2020-03-19 19:01:11:942
-1.632845,-13.872005,-14.422671,0.0,49.831573,24.040497,308.0,NaN,5.796,23.0,46.3,11 / 11,54026,2020-03-19 19:01:12:442
-1.613692,-9.471462,-2.260126,0.0,49.831573,24.040497,308.0,NaN,5.796,23.0,46.3,11 / 11,54526,2020-03-19 19:01:12:942
-2.652775,-2.911349,3.093309,0.0,49.831573,24.040497,308.0,NaN,5.796,23.0,46.3,11 / 11,55026,2020-03-19 19:01:13:442
-2.868254,-5.33907,-0.938527,0.0,49.831573,24.040497,308.0,NaN,5.796,23.0,46.3,11 / 11,55526,2020-03-19 19:01:13:942
-0.574608,-10.180145,-1.862689,0.0,49.831573,24.040497,308.0,NaN,5.796,23.0,46.3,11 / 11,56026,2020-03-19 19:01:14:442
3.854665,-21.246145,-1.584961,0.0,49.831573,24.040497,308.0,NaN,5.796,23.0,46.3,11 / 11,56526,2020-03-19 19:01:14:942
-8.39886,-17.24783,5.358224,0.0,49.831573,24.040497,308.0,NaN,5.796,23.0,46.3,11 / 11,57026,2020-03-19 19:01:15:442
-4.429273,-5.358223,12.20564,0.0,49.831573,24.040497,308.0,NaN,5.796,23.0,46.3,11 / 11,57526,2020-03-19 19:01:15:942
-6.062118,-12.569559,-0.225055,0.0,49.831573,24.040497,308.0,NaN,5.796,23.0,46.3,11 / 11,58026,2020-03-19 19:01:16:442
-3.323152,-15.490485,7.04853,0.0,49.831573,24.040497,308.0,NaN,5.796,23.0,46.3,11 / 11,58526,2020-03-19 19:01:16:942
-2.442086,-16.31409,4.797981,0.0,49.831573,24.040497,308.0,NaN,5.796,23.0,46.3,11 / 11,59025,2020-03-19 19:01:17:441
-11.741165,-27.174189,-22.783224,0.0,49.831573,24.040497,308.0,NaN,5.796,23.0,46.3,11 / 11,59525,2020-03-19 19:01:17:941
-0.890643,-13.374011,-1.292869,0.0,49.831573,24.040497,308.0,NaN,5.796,23.0,46.3,11 / 11,60026,2020-03-19 19:01:18:442
-4.352658,-11.889606,-9.169792,0.0,49.831573,24.040497,308.0,NaN,5.796,23.0,46.3,11 / 11,60526,2020-03-19 19:01:18:942
-3.830723,-8.030152,-3.462016,0.0,49.831573,24.040497,308.0,NaN,5.796,23.0,46.3,11 / 11,61026,2020-03-19 19:01:19:442
-2.207454,-1.403002,3.667917,0.0,49.831573,24.040497,308.0,NaN,5.796,23.0,46.3,11 / 11,61526,2020-03-19 19:01:19:942
-5.564124,-5.33907,-2.169147,0.0,49.831573,24.040497,308.0,NaN,5.796,23.0,46.3,11 / 11,62026,2020-03-19 19:01:20:442
-3.069367,-0.895431,3.500323,0.0,49.831573,24.040497,308.0,NaN,5.796,23.0,46.3,11 / 11,62526,2020-03-19 19:01:20:942
-2.140416,-7.10599,-0.062249,0.0,49.831573,24.040497,308.0,NaN,5.796,23.0,46.3,11 / 11,63026,2020-03-19 19:01:21:442
3.332729,-8.801085,1.043872,0.0,49.831573,24.040497,308.0,NaN,5.796,23.0,46.3,11 / 11,63526,2020-03-19 19:01:21:942
2.916138,-13.560759,-2.920926,0.0,49.831573,24.040497,308.0,NaN,5.796,23.0,46.3,11 / 11,64026,2020-03-19 19:01:22:442
-12.081141,-12.741941,1.766921,0.0,49.831573,24.040497,308.0,NaN,5.796,23.0,46.3,11 / 11,64525,2020-03-19 19:01:22:941
-3.045424,-4.094085,29.400797,0.0,49.831573,24.040497,308.0,NaN,5.796,23.0,46.3,11 / 11,65026,2020-03-19 19:01:23:442
-1.968034,-12.837709,-1.833958,0.0,49.831573,24.040497,308.0,NaN,5.796,23.0,46.3,11 / 11,65526,2020-03-19 19:01:23:942
-9.911995,-13.929465,-12.756307,0.0,49.831573,24.040497,308.0,NaN,5.796,23.0,46.3,11 / 11,66026,2020-03-19 19:01:24:442
-3.979163,-6.651092,-2.073379,0.0,49.831573,24.040497,308.0,NaN,5.796,23.0,46.3,11 / 11,66526,2020-03-19 19:01:24:942
-13.01488,-16.922218,-18.971655,0.0,49.831573,24.040497,308.0,NaN,5.796,23.0,46.3,11 / 11,67026,2020-03-19 19:01:25:442
-3.557784,-10.668563,-2.691083,0.0,49.831573,24.040497,308.0,NaN,5.796,23.0,46.3,11 / 11,67526,2020-03-19 19:01:25:942
-2.173935,-0.325611,3.155558,0.0,49.831573,24.040497,308.0,NaN,5.796,23.0,46.3,11 / 11,68026,2020-03-19 19:01:26:442
-1.422156,-7.326257,0.766145,0.0,49.831573,24.040497,308.0,NaN,5.796,23.0,46.3,11 / 11,68526,2020-03-19 19:01:26:942
1.584962,-7.589619,2.197877,0.0,49.831573,24.040497,308.0,NaN,5.796,23.0,46.3,11 / 11,69026,2020-03-19 19:01:27:442
-4.659116,-8.135497,-0.957681,0.0,49.831573,24.040497,308.0,NaN,5.796,23.0,46.3,11 / 11,69526,2020-03-19 19:01:27:942
-13.967772,-14.044387,-1.810016,0.0,49.831573,24.040497,308.0,NaN,5.796,23.0,46.3,11 / 11,70026,2020-03-19 19:01:28:442
0.603339,-3.998317,10.884041,0.0,49.831573,24.040497,308.0,NaN,5.796,23.0,46.3,11 / 11,70526,2020-03-19 19:01:28:942
-0.766144,-13.967772,-4.793192,0.0,49.831573,24.040497,308.0,NaN,5.796,23.0,46.3,11 / 11,71026,2020-03-19 19:01:29:442
-5.334281,-4.237737,-1.881842,0.0,49.831573,24.040497,308.0,NaN,5.796,23.0,46.3,11 / 11,71526,2020-03-19 19:01:29:942
-3.069367,-16.122555,-0.794875,0.0,49.831573,24.040497,308.0,NaN,5.796,23.0,46.3,11 / 11,72026,2020-03-19 19:01:30:442
-4.491522,-6.105214,-4.098873,0.0,49.831573,24.040497,308.0,NaN,5.796,23.0,46.3,11 / 11,72526,2020-03-19 19:01:30:942
-0.991199,-12.291832,-2.442086,0.0,49.831573,24.040497,308.0,NaN,5.796,23.0,46.3,11 / 11,73025,2020-03-19 19:01:31:441
-2.030283,-2.748543,0.244209,0.0,49.831573,24.040497,308.0,NaN,5.796,23.0,46.3,11 / 11,73525,2020-03-19 19:01:31:941
-1.532289,-8.269572,1.015142,0.0,49.831573,24.040497,308.0,NaN,5.796,23.0,46.3,11 / 11,74026,2020-03-19 19:01:32:442
-1.240196,-4.639962,2.240973,0.0,49.831573,24.040497,308.0,NaN,5.796,23.0,46.3,11 / 11,74526,2020-03-19 19:01:32:942
-4.098873,-7.517793,0.785298,0.0,49.831573,24.040497,308.0,NaN,5.796,23.0,46.3,11 / 11,75026,2020-03-19 19:01:33:442
-11.372458,-13.508086,0.292093,0.0,49.831573,24.040497,308.0,NaN,5.796,23.0,46.3,11 / 11,75526,2020-03-19 19:01:33:942
-3.500323,-6.291962,-0.105345,0.0,49.831573,24.040497,308.0,NaN,5.796,23.0,46.3,11 / 11,76026,2020-03-19 19:01:34:442
-9.730036,-12.411542,-0.612916,0.0,49.831573,24.040497,308.0,NaN,5.796,23.0,46.3,11 / 11,76526,2020-03-19 19:01:34:942
-6.440402,-21.001938,-6.579266,0.0,49.831573,24.040497,308.0,NaN,5.796,23.0,46.3,11 / 11,77026,2020-03-19 19:01:35:442
-4.922478,-12.26789,-1.49877,0.0,49.831573,24.040497,308.0,NaN,5.796,23.0,46.3,11 / 11,77526,2020-03-19 19:01:35:942
4.735731,-7.187393,-12.119449,0.0,49.831573,24.040497,308.0,NaN,5.796,23.0,46.3,11 / 11,78026,2020-03-19 19:01:36:442
-0.775721,-12.464214,1.417368,0.0,49.831573,24.040497,308.0,NaN,5.796,23.0,46.3,11 / 11,78526,2020-03-19 19:01:36:942
-4.525041,-5.094861,-6.780379,0.0,49.831573,24.040497,308.0,NaN,5.796,23.0,46.3,11 / 11,79026,2020-03-19 19:01:37:442
-2.202665,-6.363788,4.520253,0.0,49.831573,24.040497,308.0,NaN,5.796,23.0,46.3,11 / 11,79525,2020-03-19 19:01:37:941
-1.192312,-2.863465,2.705448,0.0,49.831573,24.040497,308.0,NaN,5.796,23.0,46.3,11 / 11,80026,2020-03-19 19:01:38:442
-5.420472,-6.426037,0.497994,0.0,49.831573,24.040497,308.0,NaN,5.796,23.0,46.3,11 / 11,80526,2020-03-19 19:01:38:942
-2.035071,-1.364695,3.217807,0.0,49.831573,24.040497,308.0,NaN,5.796,23.0,46.3,11 / 11,81026,2020-03-19 19:01:39:442
-2.614468,-6.588843,0.42138,0.0,49.83295,24.040422,321.4,NaN,,24.816998,,0 / 0,81526,2020-03-19 19:01:39:942
3.213019,-9.835381,-0.301669,0.0,49.83295,24.040422,321.4,NaN,,24.816998,,0 / 0,82026,2020-03-19 19:01:40:442
0.114922,-17.48725,-4.683058,0.0,49.83295,24.040422,321.4,NaN,,24.816998,,0 / 5,82526,2020-03-19 19:01:40:942
-13.723564,-15.179238,3.122039,0.0,49.83295,24.040422,321.4,NaN,,24.816998,,0 / 5,83026,2020-03-19 19:01:41:442
-8.954314,-18.598158,7.632715,0.0,49.83295,24.040422,321.4,NaN,,24.816998,,0 / 9,83526,2020-03-19 19:01:41:942
-1.958457,-15.495274,-4.424484,0.0,49.83295,24.040422,321.4,NaN,,24.816998,,0 / 9,84026,2020-03-19 19:01:42:442
-10.213664,-15.868769,-13.709199,0.0,49.832714,24.040468,326.0,NaN,6.444,10.5,303.8,16 / 16,84525,2020-03-19 19:01:42:941
-1.570596,-15.500062,-4.333505,0.0,49.832714,24.040468,326.0,NaN,6.444,10.5,303.8,16 / 16,85026,2020-03-19 19:01:43:442
0.124498,-2.762909,-2.226607,0.0,49.832714,24.040468,326.0,NaN,6.444,10.5,303.8,16 / 16,85526,2020-03-19 19:01:43:942
-1.867477,-10.620679,-1.70946,0.0,49.832714,24.040468,326.0,NaN,6.444,10.5,303.8,16 / 16,86026,2020-03-19 19:01:44:442
-3.667917,-3.667917,-1.374272,0.0,49.832714,24.040468,326.0,NaN,6.444,10.5,303.8,16 / 16,86526,2020-03-19 19:01:44:942
-0.804452,-7.819463,-0.402226,0.0,49.832714,24.040468,326.0,NaN,6.444,10.5,303.8,16 / 16,87026,2020-03-19 19:01:45:442
0.670377,-1.278504,2.193089,0.0,49.832714,24.040468,326.0,NaN,6.444,10.5,303.8,16 / 16,87526,2020-03-19 19:01:45:942
-5.501875,-4.309563,0.244209,0.0,49.832714,24.040468,326.0,NaN,6.444,10.5,303.8,16 / 16,88026,2020-03-19 19:01:46:442
-1.623269,-6.818686,2.164359,0.0,49.832714,24.040468,326.0,NaN,6.444,10.5,303.8,16 / 16,88526,2020-03-19 19:01:46:942
-4.697424,-6.493075,1.383849,0.0,49.832714,24.040468,326.0,NaN,6.444,10.5,303.8,16 / 16,89026,2020-03-19 19:01:47:442
-2.183512,-8.561666,-0.579397,0.0,49.832714,24.040468,326.0,NaN,6.444,10.5,303.8,16 / 16,89526,2020-03-19 19:01:47:942
-7.608773,-21.56218,-6.373365,0.0,49.832714,24.040468,326.0,NaN,6.444,10.5,303.8,16 / 16,90026,2020-03-19 19:01:48:442
-1.776498,-2.111686,2.63841,0.0,49.832714,24.040468,326.0,NaN,6.444,10.5,303.8,16 / 16,90526,2020-03-19 19:01:48:942
-0.684742,-8.350976,-0.196325,0.0,49.832714,24.040468,326.0,NaN,6.444,10.5,303.8,16 / 16,91025,2020-03-19 19:01:49:441
-1.541866,-9.308656,0.584185,0.0,49.832714,24.040468,326.0,NaN,6.444,10.5,303.8,16 / 16,91525,2020-03-19 19:01:49:941
1.695095,-15.14572,-2.54743,0.0,49.832714,24.040468,326.0,NaN,6.444,10.5,303.8,16 / 16,92026,2020-03-19 19:01:50:442
-9.821015,-17.803284,-3.136404,0.0,49.832714,24.040468,326.0,NaN,6.444,10.5,303.8,16 / 16,92526,2020-03-19 19:01:50:942
-1.422156,-13.010092,-2.097321,0.0,49.832714,24.040468,326.0,NaN,6.444,10.5,303.8,16 / 16,93025,2020-03-19 19:01:51:441
-0.296881,0.703895,1.556231,0.0,49.832714,24.040468,326.0,NaN,6.444,10.5,303.8,16 / 16,93525,2020-03-19 19:01:51:941
-1.244985,-6.694188,-1.235408,0.0,49.832714,24.040468,326.0,NaN,6.444,10.5,303.8,16 / 16,94025,2020-03-19 19:01:52:441
-0.646434,1.244985,3.117251,0.0,49.832714,24.040468,326.0,NaN,6.444,10.5,303.8,16 / 16,94525,2020-03-19 19:01:52:941
-2.355894,-6.426037,-0.02873,0.0,49.832714,24.040468,326.0,NaN,6.444,10.5,303.8,16 / 16,95026,2020-03-19 19:01:53:442
-6.186617,-6.076483,-8.025364,0.0,49.832714,24.040468,326.0,NaN,6.444,10.5,303.8,16 / 16,95526,2020-03-19 19:01:53:942
-4.362235,-6.86657,-3.284845,0.0,49.832714,24.040468,326.0,NaN,6.444,10.5,303.8,16 / 16,96027,2020-03-19 19:01:54:443
-1.403002,-1.719037,3.227384,0.0,49.832714,24.040468,326.0,NaN,6.444,10.5,303.8,16 / 16,96526,2020-03-19 19:01:54:942
-3.08852,-7.685387,-0.416591,0.0,49.832714,24.040468,326.0,NaN,6.444,10.5,303.8,16 / 16,97026,2020-03-19 19:01:55:442
1.690306,-10.25676,-0.881066,0.0,49.832714,24.040468,326.0,NaN,6.444,10.5,303.8,16 / 16,97526,2020-03-19 19:01:55:942
1.465252,-11.286267,0.062249,0.0,49.832714,24.040468,326.0,NaN,6.444,10.5,303.8,16 / 16,98026,2020-03-19 19:01:56:442
-14.686033,-15.988479,-1.584961,0.0,49.832714,24.040468,326.0,NaN,6.444,10.5,303.8,16 / 16,98525,2020-03-19 19:01:56:941
-4.529829,6.172252,3.572149,0.0,49.832714,24.040468,326.0,NaN,6.444,10.5,303.8,16 / 16,99025,2020-03-19 19:01:57:441
-8.149862,-11.927913,-0.387861,0.0,49.832714,24.040468,326.0,NaN,6.444,10.5,303.8,16 / 16,99526,2020-03-19 19:01:57:942
-0.847547,-12.899959,17.410633,0.0,49.832714,24.040468,326.0,NaN,6.444,10.5,303.8,16 / 16,100026,2020-03-19 19:01:58:442
-4.34787,-12.574347,-1.163582,0.0,49.832714,24.040468,326.0,NaN,6.444,10.5,303.8,16 / 16,100526,2020-03-19 19:01:58:942
-8.930372,-12.808979,-7.690176,0.0,49.832714,24.040468,326.0,NaN,6.444,10.5,303.8,16 / 16,101026,2020-03-19 19:01:59:442
-3.878607,-11.798626,-4.290409,0.0,49.832714,24.040468,326.0,NaN,6.444,10.5,303.8,16 / 16,101526,2020-03-19 19:01:59:942
-7.929596,-11.975797,-9.662998,0.0,49.832714,24.040468,326.0,NaN,6.444,10.5,303.8,16 / 16,102026,2020-03-19 19:02:00:442
-4.965574,-8.987833,-4.223372,0.0,49.832714,24.040468,326.0,NaN,6.444,10.5,303.8,16 / 16,102526,2020-03-19 19:02:00:942
-1.637634,-0.775721,2.892196,0.0,49.832714,24.040468,326.0,NaN,6.444,10.5,303.8,16 / 16,103026,2020-03-19 19:02:01:442
3.189077,-12.162544,-2.624045,0.0,49.832714,24.040468,326.0,NaN,6.444,10.5,303.8,16 / 16,103526,2020-03-19 19:02:01:942
-3.074155,-2.145205,1.910573,0.0,49.832714,24.040468,326.0,NaN,6.444,10.5,303.8,16 / 16,104026,2020-03-19 19:02:02:442
0.095768,-8.379706,1.532289,0.0,49.832714,24.040468,326.0,NaN,6.444,10.5,303.8,16 / 16,104526,2020-03-19 19:02:02:942
-1.235408,-4.58729,3.739743,0.0,49.832714,24.040468,326.0,NaN,6.444,10.5,303.8,16 / 16,105026,2020-03-19 19:02:03:442
-4.707,-7.924807,1.460463,0.0,49.832714,24.040468,326.0,NaN,6.444,10.5,303.8,16 / 16,105526,2020-03-19 19:02:03:942
-8.623915,-12.995727,-0.641646,0.0,49.832714,24.040468,326.0,NaN,6.444,10.5,303.8,16 / 16,106026,2020-03-19 19:02:04:442
1.70946,0.866701,12.842498,0.0,49.832714,24.040468,326.0,NaN,6.444,10.5,303.8,16 / 16,106526,2020-03-19 19:02:04:942
-2.619257,-16.443377,-2.930503,0.0,49.832714,24.040468,326.0,NaN,6.444,10.5,303.8,16 / 16,107026,2020-03-19 19:02:05:442
-5.046977,-5.449203,-2.183512,0.0,49.832714,24.040468,326.0,NaN,6.444,10.5,303.8,16 / 16,107525,2020-03-19 19:02:05:941
-11.219229,-14.235924,5.712566,0.0,49.832714,24.040468,326.0,NaN,6.444,10.5,303.8,16 / 16,108026,2020-03-19 19:02:06:442
-0.550666,-15.80652,12.995727,0.0,49.832714,24.040468,326.0,NaN,6.444,10.5,303.8,16 / 16,108526,2020-03-19 19:02:06:942
-2.557007,-12.641385,-2.705448,0.0,49.832714,24.040468,326.0,NaN,6.444,10.5,303.8,16 / 16,109026,2020-03-19 19:02:07:442
-13.40753,-16.04594,-21.62443,0.0,49.832714,24.040468,326.0,NaN,6.444,10.5,303.8,16 / 16,109526,2020-03-19 19:02:07:942
-0.062249,-10.386047,0.320823,0.0,49.832714,24.040468,326.0,NaN,6.444,10.5,303.8,16 / 16,110026,2020-03-19 19:02:08:442
-2.461239,-0.852336,2.839523,0.0,49.832714,24.040468,326.0,NaN,6.444,10.5,303.8,16 / 16,110526,2020-03-19 19:02:08:942
-2.853888,-5.27682,-0.062249,0.0,49.832714,24.040468,326.0,NaN,6.444,10.5,303.8,16 / 16,111026,2020-03-19 19:02:09:442
-2.614468,-9.548077,-0.727837,0.0,49.832714,24.040468,326.0,NaN,6.444,10.5,303.8,16 / 16,111526,2020-03-19 19:02:09:942
-1.719037,-15.298949,-4.189853,0.0,49.832714,24.040468,326.0,NaN,6.444,10.5,303.8,16 / 16,112025,2020-03-19 19:02:10:441
0.378284,-0.627281,3.083732,0.0,49.832714,24.040468,326.0,NaN,6.444,10.5,303.8,16 / 16,112525,2020-03-19 19:02:10:941
-5.118803,-5.995081,-0.703895,0.0,49.832714,24.040468,326.0,NaN,6.444,10.5,303.8,16 / 16,113026,2020-03-19 19:02:11:442
2.054225,-9.648633,0.019154,0.0,49.832714,24.040468,326.0,NaN,6.444,10.5,303.8,16 / 16,113526,2020-03-19 19:02:11:942
-1.94888,-14.992491,-2.710236,0.0,49.832714,24.040468,326.0,NaN,6.444,10.5,303.8,16 / 16,114026,2020-03-19 19:02:12:442
-14.298173,-16.941372,0.885855,0.0,49.832714,24.040468,326.0,NaN,6.444,10.5,303.8,16 / 16,114526,2020-03-19 19:02:12:942
-4.261679,-7.536947,14.968549,0.0,49.832714,24.040468,326.0,NaN,6.444,10.5,303.8,16 / 16,115026,2020-03-19 19:02:13:442
-3.045424,-14.240712,-3.529053,0.0,49.832714,24.040468,326.0,NaN,6.444,10.5,303.8,16 / 16,115526,2020-03-19 19:02:13:942
-1.369483,-7.843405,-7.489063,0.0,49.832714,24.040468,326.0,NaN,6.444,10.5,303.8,16 / 16,116025,2020-03-19 19:02:14:441
-5.070919,-16.79772,-4.726154,0.0,49.832714,24.040468,326.0,NaN,6.444,10.5,303.8,16 / 16,116525,2020-03-19 19:02:14:941
-8.149862,-9.883265,-7.441179,0.0,49.832714,24.040468,326.0,NaN,6.444,10.5,303.8,16 / 16,117026,2020-03-19 19:02:15:442
-1.661576,-10.481815,-0.555455,0.0,49.832714,24.040468,326.0,NaN,6.444,10.5,303.8,16 / 16,117526,2020-03-19 19:02:15:942
-1.94888,-0.608127,3.222596,0.0,49.832714,24.040468,326.0,NaN,6.444,10.5,303.8,16 / 16,118026,2020-03-19 19:02:16:442
-1.369483,-8.159439,-0.550666,0.0,49.832714,24.040468,326.0,NaN,6.444,10.5,303.8,16 / 16,118526,2020-03-19 19:02:16:942
1.642422,-7.742848,0.430956,0.0,49.832714,24.040468,326.0,NaN,6.444,10.5,303.8,16 / 16,119026,2020-03-19 19:02:17:442
0.560243,-11.353305,-0.521936,0.0,49.832714,24.040468,326.0,NaN,6.444,10.5,303.8,16 / 16,119525,2020-03-19 19:02:17:941
-10.639832,-14.475344,5.928044,0.0,49.832714,24.040468,326.0,NaN,6.444,10.5,303.8,16 / 16,120026,2020-03-19 19:02:18:442
-3.65834,-7.958326,2.485181,0.0,49.832714,24.040468,326.0,NaN,6.444,10.5,303.8,16 / 16,120526,2020-03-19 19:02:18:942
-13.077129,-11.626244,-2.829946,0.0,49.832714,24.040468,326.0,NaN,6.444,10.5,303.8,16 / 16,121026,2020-03-19 19:02:19:442
0.268151,6.081272,3.916914,0.0,49.832714,24.040468,326.0,NaN,6.444,10.5,303.8,16 / 16,121525,2020-03-19 19:02:19:941
-2.786851,-13.249513,-4.754884,0.0,49.832714,24.040468,326.0,NaN,6.444,10.5,303.8,16 / 16,122025,2020-03-19 19:02:20:441
-7.603985,-10.577583,-7.570465,0.0,49.832714,24.040468,326.0,NaN,6.444,10.5,303.8,16 / 16,122526,2020-03-19 19:02:20:942
1.345541,-11.880029,-1.656788,0.0,49.832714,24.040468,326.0,NaN,6.444,10.5,303.8,16 / 16,123026,2020-03-19 19:02:21:442
-2.437297,-0.469264,2.375048,0.0,49.832714,24.040468,326.0,NaN,6.444,10.5,303.8,16 / 16,123526,2020-03-19 19:02:21:942
-1.067814,-7.144298,0.986411,0.0,49.832714,24.040468,326.0,NaN,6.444,10.5,303.8,16 / 16,124026,2020-03-19 19:02:22:442
-0.986411,-6.14831,1.398214,0.0,49.832714,24.040468,326.0,NaN,6.444,10.5,303.8,16 / 16,124526,2020-03-19 19:02:22:942
-6.818686,-6.804321,-4.34787,0.0,49.832714,24.040468,326.0,NaN,6.444,10.5,303.8,16 / 16,125026,2020-03-19 19:02:23:442
-2.020706,-1.154005,3.256114,0.0,49.832714,24.040468,326.0,NaN,6.444,10.5,303.8,16 / 16,125526,2020-03-19 19:02:23:942
-5.439626,-6.315904,-1.197101,0.0,49.832714,24.040468,326.0,NaN,6.444,10.5,303.8,16 / 16,126026,2020-03-19 19:02:24:442
-0.775721,-10.687716,-2.528277,0.0,49.832714,24.040468,326.0,NaN,6.444,10.5,303.8,16 / 16,126526,2020-03-19 19:02:24:942
-6.368576,-13.139379,21.011515,0.0,49.832714,24.040468,326.0,NaN,6.444,10.5,303.8,16 / 16,127026,2020-03-19 19:02:25:442
-2.715025,-15.198392,-0.54109,0.0,49.832714,24.040468,326.0,NaN,6.444,10.5,303.8,16 / 16,127525,2020-03-19 19:02:25:941
-3.462016,-13.230358,-8.049306,0.0,49.832714,24.040468,326.0,NaN,6.444,10.5,303.8,16 / 16,128026,2020-03-19 19:02:26:442
-2.834735,-10.232818,-1.340753,0.0,49.832714,24.040468,326.0,NaN,6.444,10.5,303.8,16 / 16,128526,2020-03-19 19:02:26:942
-8.542512,-16.419436,-19.335573,0.0,49.832714,24.040468,326.0,NaN,6.444,10.5,303.8,16 / 16,129026,2020-03-19 19:02:27:442
-4.673482,-8.815451,-1.115698,0.0,49.832714,24.040468,326.0,NaN,6.444,10.5,303.8,16 / 16,129526,2020-03-19 19:02:27:942
-1.335964,-5.238513,1.953669,0.0,49.832714,24.040468,326.0,NaN,6.444,10.5,303.8,16 / 16,130026,2020-03-19 19:02:28:442
-1.297657,-17.458517,-1.666364,0.0,49.832714,24.040468,326.0,NaN,6.444,10.5,303.8,16 / 16,130526,2020-03-19 19:02:28:942
-4.941632,-14.317327,-1.537077,0.0,49.832714,24.040468,326.0,NaN,6.444,10.5,303.8,16 / 16,131026,2020-03-19 19:02:29:442
-3.141193,-8.183381,-5.659893,0.0,49.832714,24.040468,326.0,NaN,6.444,10.5,303.8,16 / 16,131526,2020-03-19 19:02:29:942
-1.877054,-8.020575,0.387861,0.0,49.832714,24.040468,326.0,NaN,6.444,10.5,303.8,16 / 16,132026,2020-03-19 19:02:30:442
-1.23062,-5.832275,0.502782,0.0,49.832714,24.040468,326.0,NaN,6.444,10.5,303.8,16 / 16,132526,2020-03-19 19:02:30:942
-1.92015,-8.51857,0.675165,0.0,49.832714,24.040468,326.0,NaN,6.444,10.5,303.8,16 / 16,133026,2020-03-19 19:02:31:442
-0.368707,-9.993398,2.030283,0.0,49.832714,24.040468,326.0,NaN,6.444,10.5,303.8,16 / 16,133526,2020-03-19 19:02:31:942
-5.013458,-9.351752,9.184157,0.0,49.832714,24.040468,326.0,NaN,6.444,10.5,303.8,16 / 16,134026,2020-03-19 19:02:32:442
-4.424484,-10.548853,-0.68953,0.0,49.832714,24.040468,326.0,NaN,6.444,10.5,303.8,16 / 16,134526,2020-03-19 19:02:32:942
-4.61602,-8.5473,-4.304775,0.0,49.832714,24.040468,326.0,NaN,6.444,10.5,303.8,16 / 16,135026,2020-03-19 19:02:33:442
-2.676717,-10.749966,-0.45011,0.0,49.832714,24.040468,326.0,NaN,6.444,10.5,303.8,16 / 16,135526,2020-03-19 19:02:33:942
-3.29921,-8.504205,-3.763685,0.0,49.832714,24.040468,326.0,NaN,6.444,10.5,303.8,16 / 16,136026,2020-03-19 19:02:34:442
-5.123591,-7.800309,-1.886631,0.0,49.832714,24.040468,326.0,NaN,6.444,10.5,303.8,16 / 16,136526,2020-03-19 19:02:34:942
-2.815581,-9.399636,0.502782,0.0,49.832714,24.040468,326.0,NaN,6.444,10.5,303.8,16 / 16,137025,2020-03-19 19:02:35:441
-0.818817,-10.156203,-2.48997,0.0,49.832714,24.040468,326.0,NaN,6.444,10.5,303.8,16 / 16,137526,2020-03-19 19:02:35:942
-1.11091,-13.656527,4.376601,0.0,49.832714,24.040468,326.0,NaN,6.444,10.5,303.8,16 / 16,138026,2020-03-19 19:02:36:442
-1.810016,-10.113108,-1.288081,0.0,49.832714,24.040468,326.0,NaN,6.444,10.5,303.8,16 / 16,138526,2020-03-19 19:02:36:942
-4.683058,-7.354987,-4.309563,0.0,49.832714,24.040468,326.0,NaN,6.444,10.5,303.8,16 / 16,139026,2020-03-19 19:02:37:442
-4.845864,-8.78672,-0.11971,0.0,49.832714,24.040468,326.0,NaN,6.444,10.5,303.8,16 / 16,139526,2020-03-19 19:02:37:942
-7.096413,-10.817003,4.027047,0.0,49.832714,24.040468,326.0,NaN,6.444,10.5,303.8,16 / 16,140025,2020-03-19 19:02:38:441
8.154651,8.470686,22.524649,0.0,49.832714,24.040468,326.0,NaN,6.444,10.5,303.8,16 / 16,140526,2020-03-19 19:02:38:942
-5.540182,-13.005303,-3.519476,0.0,49.832714,24.040468,326.0,NaN,6.444,10.5,303.8,16 / 16,141026,2020-03-19 19:02:39:442
-4.611232,-9.289502,18.119318,0.0,49.832714,24.040468,326.0,NaN,6.444,10.5,303.8,16 / 16,141526,2020-03-19 19:02:39:942
-4.31914,-12.890382,-5.702988,0.0,49.832714,24.040468,326.0,NaN,6.444,10.5,303.8,16 / 16,142026,2020-03-19 19:02:40:442
6.641516,-0.378284,-6.349423,0.0,49.832714,24.040468,326.0,NaN,6.444,10.5,303.8,16 / 16,142526,2020-03-19 19:02:40:942
0.335188,-12.545617,-0.80924,0.0,49.832714,24.040468,326.0,NaN,6.444,10.5,303.8,16 / 16,143026,2020-03-19 19:02:41:442
-9.366117,-11.281479,-15.873557,0.0,49.832714,24.040468,326.0,NaN,6.444,10.5,303.8,16 / 16,143525,2020-03-19 19:02:41:941
-4.333505,-7.599196,-3.160346,0.0,49.832714,24.040468,326.0,NaN,6.444,10.5,303.8,16 / 16,144026,2020-03-19 19:02:42:442
-0.349553,-0.225055,2.767697,0.0,49.832714,24.040468,326.0,NaN,6.444,10.5,303.8,16 / 16,144526,2020-03-19 19:02:42:942
-7.398083,-3.217807,-0.952892,0.0,49.832714,24.040468,326.0,NaN,6.444,10.5,303.8,16 / 16,145026,2020-03-19 19:02:43:442
-1.37906,-0.081403,4.802769,0.0,49.832714,24.040468,326.0,NaN,6.444,10.5,303.8,16 / 16,145526,2020-03-19 19:02:43:942
-3.677494,-5.482722,0.502782,0.0,49.832714,24.040468,326.0,NaN,6.444,10.5,303.8,16 / 16,146026,2020-03-19 19:02:44:442
0.244209,-7.876923,2.006341,0.0,49.832714,24.040468,326.0,NaN,6.444,10.5,303.8,16 / 16,146526,2020-03-19 19:02:44:942
-5.228936,-9.706094,-1.853112,0.0,49.832714,24.040468,326.0,NaN,6.444,10.5,303.8,16 / 16,147026,2020-03-19 19:02:45:442
-13.029245,-15.591042,-1.010353,0.0,49.832714,24.040468,326.0,NaN,6.444,10.5,303.8,16 / 16,147526,2020-03-19 19:02:45:942
-3.620033,3.529053,5.45878,0.0,49.832714,24.040468,326.0,NaN,6.444,10.5,303.8,16 / 16,148026,2020-03-19 19:02:46:442
-2.341529,-14.930242,-4.189853,0.0,49.832714,24.040468,326.0,NaN,6.444,10.5,303.8,16 / 16,148526,2020-03-19 19:02:46:942
-9.519346,-16.385916,-17.204733,0.0,49.832714,24.040468,326.0,NaN,6.444,10.5,303.8,16 / 16,149026,2020-03-19 19:02:47:442
-3.213019,-22.242134,-1.805228,0.0,49.832714,24.040468,326.0,NaN,6.444,10.5,303.8,0 / 0,149525,2020-03-19 19:02:47:941
-8.298302,-3.533841,-5.702988,0.0,49.832714,24.040468,326.0,NaN,6.444,10.5,303.8,0 / 0,150026,2020-03-19 19:02:48:442
-2.834735,-10.280702,-3.236961,0.0,49.832714,24.040468,326.0,NaN,6.444,10.5,303.8,0 / 1,150526,2020-03-19 19:02:48:942
-1.120486,-0.713472,4.400543,0.0,49.832714,24.040468,326.0,NaN,6.444,10.5,303.8,0 / 1,151026,2020-03-19 19:02:49:442
-1.039083,-8.063671,1.359907,0.0,49.832714,24.040468,326.0,NaN,6.444,10.5,303.8,0 / 3,151526,2020-03-19 19:02:49:942
3.145981,-9.390059,-1.015141,0.0,49.832714,24.040468,326.0,NaN,6.444,10.5,303.8,0 / 3,152025,2020-03-19 19:02:50:441
2.03986,-14.911088,-2.585738,0.0,49.833187,24.039665,330.0,NaN,5.328,12.0,18.0,8 / 8,152525,2020-03-19 19:02:50:941
-13.737929,-15.428236,1.699883,0.0,49.833187,24.039665,330.0,NaN,5.328,12.0,18.0,8 / 8,153026,2020-03-19 19:02:51:442
3.931279,8.892065,9.615114,0.0,49.833187,24.039665,330.0,NaN,5.328,12.0,18.0,8 / 8,153526,2020-03-19 19:02:51:942
-10.16578,-11.190498,-0.057461,0.0,49.833187,24.039665,330.0,NaN,5.328,12.0,18.0,8 / 8,154026,2020-03-19 19:02:52:442
1.92015,-8.432379,28.682537,0.0,49.833187,24.039665,330.0,NaN,5.328,12.0,18.0,8 / 8,154525,2020-03-19 19:02:52:941
-2.169147,-12.014104,-5.190629,0.0,49.833187,24.039665,330.0,NaN,5.328,12.0,18.0,8 / 8,155026,2020-03-19 19:02:53:442
-5.032612,-10.879252,-7.915231,0.0,49.833187,24.039665,330.0,NaN,5.328,12.0,18.0,8 / 8,155526,2020-03-19 19:02:53:942
-0.775721,-12.612655,0.521936,0.0,49.833187,24.039665,330.0,NaN,5.328,12.0,18.0,8 / 8,156026,2020-03-19 19:02:54:442
-0.421379,0.143652,3.74932,0.0,49.833187,24.039665,330.0,NaN,5.328,12.0,18.0,8 / 8,156525,2020-03-19 19:02:54:941
-2.973598,-6.272808,-0.699107,0.0,49.833187,24.039665,330.0,NaN,5.328,12.0,18.0,8 / 8,157026,2020-03-19 19:02:55:442
0.986411,-7.096413,1.44131,0.0,49.833187,24.039665,330.0,NaN,5.328,12.0,18.0,8 / 8,157526,2020-03-19 19:02:55:942
-0.833182,-11.415554,0.933739,0.0,49.833187,24.039665,330.0,NaN,5.328,12.0,18.0,8 / 8,158026,2020-03-19 19:02:56:442
-1.23062,-2.815581,2.528277,0.0,49.833187,24.039665,330.0,NaN,5.328,12.0,18.0,8 / 8,158526,2020-03-19 19:02:56:942
-4.486734,-5.932832,0.814029,0.0,49.833187,24.039665,330.0,NaN,5.328,12.0,18.0,8 / 8,159025,2020-03-19 19:02:57:441
-10.740389,-11.473015,-0.656011,0.0,49.833187,24.039665,330.0,NaN,5.328,12.0,18.0,8 / 8,159525,2020-03-19 19:02:57:941
3.572149,-9.433155,19.024326,0.0,49.833187,24.039665,330.0,NaN,5.328,12.0,18.0,8 / 8,160026,2020-03-19 19:02:58:442
-2.365471,-14.858416,-3.548207,0.0,49.833187,24.039665,330.0,NaN,5.328,12.0,18.0,8 / 8,160526,2020-03-19 19:02:58:942
-5.056554,-7.599196,-7.072471,0.0,49.833187,24.039665,330.0,NaN,5.328,12.0,18.0,8 / 8,161026,2020-03-19 19:02:59:442
-1.924938,-12.995727,-1.968034,0.0,49.833187,24.039665,330.0,NaN,5.328,12.0,18.0,8 / 8,161526,2020-03-19 19:02:59:942
-1.771709,-0.344765,1.80044,0.0,49.833187,24.039665,330.0,NaN,5.328,12.0,18.0,8 / 8,162026,2020-03-19 19:03:00:442
0.866701,-12.315774,-1.465251,0.0,49.833187,24.039665,330.0,NaN,5.328,12.0,18.0,8 / 8,162526,2020-03-19 19:03:00:942
-2.920926,-0.627281,1.776498,0.0,49.833187,24.039665,330.0,NaN,5.328,12.0,18.0,8 / 8,163026,2020-03-19 19:03:01:442
-1.115698,-8.010998,1.177947,0.0,49.833187,24.039665,330.0,NaN,5.328,12.0,18.0,8 / 8,163526,2020-03-19 19:03:01:942
-0.584185,-3.1795,3.533842,0.0,49.833187,24.039665,330.0,NaN,5.328,12.0,18.0,8 / 8,164026,2020-03-19 19:03:02:442
-6.287173,-6.555324,0.153229,0.0,49.833187,24.039665,330.0,NaN,5.328,12.0,18.0,8 / 8,164526,2020-03-19 19:03:02:942
-8.604761,-11.836933,-0.488417,0.0,49.833187,24.039665,330.0,NaN,5.328,12.0,18.0,8 / 8,165026,2020-03-19 19:03:03:442
-3.08852,-14.140155,19.445705,0.0,49.833187,24.039665,330.0,NaN,5.328,12.0,18.0,8 / 8,165526,2020-03-19 19:03:03:942
-7.043741,-15.490485,4.730943,0.0,49.833187,24.039665,330.0,NaN,5.328,12.0,18.0,8 / 8,166025,2020-03-19 19:03:04:441
-17.204733,-17.017986,-0.02873,0.0,49.833187,24.039665,330.0,NaN,5.328,12.0,18.0,8 / 8,166525,2020-03-19 19:03:04:941
-0.646434,-13.517663,-3.011906,0.0,49.833187,24.039665,330.0,NaN,5.328,12.0,18.0,8 / 8,167026,2020-03-19 19:03:05:442
-6.737283,-12.35887,11.573571,0.0,49.833187,24.039665,330.0,NaN,5.328,12.0,18.0,8 / 8,167526,2020-03-19 19:03:05:942
-3.08852,-14.408306,-5.650316,0.0,49.833187,24.039665,330.0,NaN,5.328,12.0,18.0,8 / 8,168026,2020-03-19 19:03:06:442
-10.778696,-15.710752,-18.59337,0.0,49.833187,24.039665,330.0,NaN,5.328,12.0,18.0,8 / 8,168525,2020-03-19 19:03:06:941
-3.122039,-9.77792,-1.580173,0.0,49.833187,24.039665,330.0,NaN,5.328,12.0,18.0,8 / 8,169026,2020-03-19 19:03:07:442
-1.297657,0.205901,3.514688,0.0,49.833187,24.039665,330.0,NaN,5.328,12.0,18.0,8 / 8,169526,2020-03-19 19:03:07:942
-1.403002,-6.785167,-0.181959,0.0,49.833187,24.039665,330.0,NaN,5.328,12.0,18.0,8 / 8,170026,2020-03-19 19:03:08:442
0.258574,-4.860229,2.906561,0.0,49.833187,24.039665,330.0,NaN,5.328,12.0,18.0,8 / 8,170526,2020-03-19 19:03:08:942
-3.931279,-6.311115,0.608127,0.0,49.833187,24.039665,330.0,NaN,5.328,12.0,18.0,8 / 8,171026,2020-03-19 19:03:09:442
-9.864111,-12.861651,-1.072602,0.0,49.833187,24.039665,330.0,NaN,5.328,12.0,18.0,8 / 8,171526,2020-03-19 19:03:09:942
2.025495,-6.861782,21.71541,0.0,49.833187,24.039665,330.0,NaN,5.328,12.0,18.0,8 / 8,172026,2020-03-19 19:03:10:442
-1.910573,-16.998833,-2.944868,0.0,49.833187,24.039665,330.0,NaN,5.328,12.0,18.0,8 / 8,172525,2020-03-19 19:03:10:941
-7.31668,-7.541735,-3.05979,0.0,49.833187,24.039665,330.0,NaN,5.328,12.0,18.0,8 / 8,173026,2020-03-19 19:03:11:442
-9.414001,-11.137826,2.777274,0.0,49.833187,24.039665,330.0,NaN,5.328,12.0,18.0,8 / 8,173526,2020-03-19 19:03:11:942
-10.01734,-14.949395,-8.015787,0.0,49.833187,24.039665,330.0,NaN,5.328,12.0,18.0,8 / 8,174026,2020-03-19 19:03:12:442
-1.101333,-12.488156,-0.981623,0.0,49.833187,24.039665,330.0,NaN,5.328,12.0,18.0,8 / 8,174526,2020-03-19 19:03:12:942
-2.126051,-2.245761,0.708684,0.0,49.833187,24.039665,330.0,NaN,5.328,12.0,18.0,8 / 8,175026,2020-03-19 19:03:13:442
-0.474052,-6.890512,1.364695,0.0,49.833187,24.039665,330.0,NaN,5.328,12.0,18.0,8 / 8,175526,2020-03-19 19:03:13:942
-1.216254,-2.810793,3.519477,0.0,49.833187,24.039665,330.0,NaN,5.328,12.0,18.0,8 / 8,176026,2020-03-19 19:03:14:442
-6.17704,-6.679823,0.081403,0.0,49.833187,24.039665,330.0,NaN,5.328,12.0,18.0,8 / 8,176526,2020-03-19 19:03:14:942
-7.876923,-11.530476,-0.78051,0.0,49.833187,24.039665,330.0,NaN,5.328,12.0,18.0,8 / 8,177025,2020-03-19 19:03:15:441
-2.99754,-6.229713,0.047884,0.0,49.833187,24.039665,330.0,NaN,5.328,12.0,18.0,8 / 8,177525,2020-03-19 19:03:15:941
2.710236,-9.792285,0.186748,0.0,49.833187,24.039665,330.0,NaN,5.328,12.0,18.0,8 / 8,178026,2020-03-19 19:03:16:442
-0.952892,-16.879122,-5.707777,0.0,49.833187,24.039665,330.0,NaN,5.328,12.0,18.0,8 / 8,178526,2020-03-19 19:03:16:942
-10.58716,-12.50731,-1.814805,0.0,49.833187,24.039665,330.0,NaN,5.328,12.0,18.0,8 / 8,179026,2020-03-19 19:03:17:442
2.70066,-8.432379,32.87718,0.0,49.833187,24.039665,330.0,NaN,5.328,12.0,18.0,8 / 8,179526,2020-03-19 19:03:17:942
-6.517017,-13.369223,2.020706,0.0,49.833187,24.039665,330.0,NaN,5.328,12.0,18.0,8 / 8,180026,2020-03-19 19:03:18:442
-10.122684,-7.144298,-5.281609,0.0,49.833187,24.039665,330.0,NaN,5.328,12.0,18.0,8 / 8,180526,2020-03-19 19:03:18:942
-4.247314,-12.191275,-1.991976,0.0,49.833187,24.039665,330.0,NaN,5.328,12.0,18.0,8 / 8,181026,2020-03-19 19:03:19:442
-2.336741,-0.885855,3.016694,0.0,49.833187,24.039665,330.0,NaN,5.328,12.0,18.0,8 / 8,181526,2020-03-19 19:03:19:942
-3.964798,-11.631032,-2.106897,0.0,49.833187,24.039665,330.0,NaN,5.328,12.0,18.0,8 / 8,182025,2020-03-19 19:03:20:441
-1.637634,-3.294421,-1.968034,0.0,49.833187,24.039665,330.0,NaN,5.328,12.0,18.0,8 / 8,182526,2020-03-19 19:03:20:942
-1.766921,-7.948749,2.178724,0.0,49.833187,24.039665,330.0,NaN,5.328,12.0,18.0,8 / 8,183026,2020-03-19 19:03:21:442
-1.302446,-3.816357,2.911349,0.0,49.833187,24.039665,330.0,NaN,5.328,12.0,18.0,8 / 8,183526,2020-03-19 19:03:21:942
-5.070919,-6.526593,0.42138,0.0,49.833187,24.039665,330.0,NaN,5.328,12.0,18.0,8 / 8,184026,2020-03-19 19:03:22:442
-10.180145,-12.818556,-1.541866,0.0,49.833187,24.039665,330.0,NaN,5.328,12.0,18.0,8 / 8,184525,2020-03-19 19:03:22:941
-6.665457,2.183512,-8.389283,0.0,49.833187,24.039665,330.0,NaN,5.328,12.0,18.0,8 / 8,185025,2020-03-19 19:03:23:441
-1.072602,-15.203181,-3.567361,0.0,49.833187,24.039665,330.0,NaN,5.328,12.0,18.0,8 / 8,185526,2020-03-19 19:03:23:942
3.05979,-6.315904,18.483236,0.0,49.833187,24.039665,330.0,NaN,5.328,12.0,18.0,8 / 8,186025,2020-03-19 19:03:24:441
-2.633622,-15.83525,-2.767697,0.0,49.833187,24.039665,330.0,NaN,5.328,12.0,18.0,8 / 8,186525,2020-03-19 19:03:24:941
-1.905785,-4.501099,-3.246537,0.0,49.833187,24.039665,330.0,NaN,5.328,12.0,18.0,8 / 8,187025,2020-03-19 19:03:25:441
-2.30801,-12.315774,-4.410119,0.0,49.833187,24.039665,330.0,NaN,5.328,12.0,18.0,8 / 8,187526,2020-03-19 19:03:25:942
-1.575385,-3.725378,-3.117251,0.0,49.833187,24.039665,330.0,NaN,5.328,12.0,18.0,8 / 8,188026,2020-03-19 19:03:26:442
-2.082955,-8.566454,0.378284,0.0,49.833187,24.039665,330.0,NaN,5.328,12.0,18.0,8 / 8,188526,2020-03-19 19:03:26:942
0.588974,-7.508216,0.402226,0.0,49.833187,24.039665,330.0,NaN,5.328,12.0,18.0,8 / 8,189026,2020-03-19 19:03:27:442
0.938527,-12.129025,-0.881066,0.0,49.833187,24.039665,330.0,NaN,5.328,12.0,18.0,8 / 8,189526,2020-03-19 19:03:27:942
-10.984597,-11.228806,-1.249773,0.0,49.833187,24.039665,330.0,NaN,5.328,12.0,18.0,8 / 8,190026,2020-03-19 19:03:28:442
-6.660669,-22.43367,-6.430825,0.0,49.833187,24.039665,330.0,NaN,5.328,12.0,18.0,8 / 8,190526,2020-03-19 19:03:28:942
-6.248866,-13.742718,1.312023,0.0,49.833187,24.039665,330.0,NaN,5.328,12.0,18.0,8 / 8,191025,2020-03-19 19:03:29:441
-10.529699,-11.96622,-12.052411,0.0,49.833187,24.039665,330.0,NaN,5.328,12.0,18.0,8 / 8,191526,2020-03-19 19:03:29:942
-10.04607,-11.702858,4.994305,0.0,49.833187,24.039665,330.0,NaN,5.328,12.0,18.0,8 / 8,192025,2020-03-19 19:03:30:441
-11.085154,-18.53112,-1.584961,0.0,49.833187,24.039665,330.0,NaN,5.328,12.0,18.0,8 / 8,192526,2020-03-19 19:03:30:942
-2.360683,-13.340492,-0.962469,0.0,49.833187,24.039665,330.0,NaN,5.328,12.0,18.0,8 / 8,193026,2020-03-19 19:03:31:442
-13.757083,-14.614207,-11.329363,0.0,49.833187,24.039665,330.0,NaN,5.328,12.0,18.0,8 / 8,193526,2020-03-19 19:03:31:942
-5.27682,-5.832275,-3.107674,0.0,49.833187,24.039665,330.0,NaN,5.328,12.0,18.0,8 / 8,194026,2020-03-19 19:03:32:442
-1.704672,-1.211466,3.98874,0.0,49.833187,24.039665,330.0,NaN,5.328,12.0,18.0,8 / 8,194526,2020-03-19 19:03:32:942
-6.105214,-7.010222,-1.345541,0.0,49.833187,24.039665,330.0,NaN,5.328,12.0,18.0,8 / 8,195026,2020-03-19 19:03:33:442
-8.039729,-11.473015,-1.23062,0.0,49.833187,24.039665,330.0,NaN,5.328,12.0,18.0,8 / 8,195526,2020-03-19 19:03:33:942
2.657564,0.636858,9.476251,0.0,49.833187,24.039665,330.0,NaN,5.328,12.0,18.0,8 / 8,196026,2020-03-19 19:03:34:442
-6.785167,-11.085154,-1.072602,0.0,49.833187,24.039665,330.0,NaN,5.328,12.0,18.0,8 / 8,196526,2020-03-19 19:03:34:942
-8.149862,2.566584,-19.354727,0.0,49.833187,24.039665,330.0,NaN,5.328,12.0,18.0,8 / 8,197025,2020-03-19 19:03:35:441
-2.42772,-15.418659,-4.984728,0.0,49.833187,24.039665,330.0,NaN,5.328,12.0,18.0,8 / 8,197526,2020-03-19 19:03:35:942
-11.631032,-14.350845,-6.105214,0.0,49.833187,24.039665,330.0,NaN,5.328,12.0,18.0,8 / 8,198026,2020-03-19 19:03:36:442
-1.436521,-14.231135,-2.590526,0.0,49.833187,24.039665,330.0,NaN,5.328,12.0,18.0,8 / 8,198526,2020-03-19 19:03:36:942
-12.899959,-13.905523,-17.946936,0.0,49.833187,24.039665,330.0,NaN,5.328,12.0,18.0,8 / 8,199025,2020-03-19 19:03:37:441
-6.703765,-6.967127,-4.046201,0.0,49.833187,24.039665,330.0,NaN,5.328,12.0,18.0,8 / 8,199525,2020-03-19 19:03:37:941
-2.470816,-0.550666,4.10845,0.0,49.833187,24.039665,330.0,NaN,5.328,12.0,18.0,8 / 8,200025,2020-03-19 19:03:38:441
-4.161122,-6.598419,0.636858,0.0,49.833187,24.039665,330.0,NaN,5.328,12.0,18.0,8 / 8,200526,2020-03-19 19:03:38:942
-1.776498,0.033519,3.576938,0.0,49.833187,24.039665,330.0,NaN,5.328,12.0,18.0,8 / 8,201026,2020-03-19 19:03:39:442
-0.555455,-9.097966,0.402226,0.0,49.833187,24.039665,330.0,NaN,5.328,12.0,18.0,8 / 8,201526,2020-03-19 19:03:39:942
0.177171,-4.941632,3.361459,0.0,49.833187,24.039665,330.0,NaN,5.328,12.0,18.0,8 / 8,202026,2020-03-19 19:03:40:442
-2.231396,-8.360553,1.268927,0.0,49.833187,24.039665,330.0,NaN,5.328,12.0,18.0,0 / 0,202525,2020-03-19 19:03:40:941
-9.840169,-13.000515,-2.504335,0.0,49.833187,24.039665,330.0,NaN,5.328,12.0,18.0,0 / 0,203026,2020-03-19 19:03:41:442
-7.321469,1.01993,-6.521805,0.0,49.833187,24.039665,330.0,NaN,5.328,12.0,18.0,0 / 3,203526,2020-03-19 19:03:41:942
-2.39899,-13.469779,-3.232172,0.0,49.833187,24.039665,330.0,NaN,5.328,12.0,18.0,0 / 3,204026,2020-03-19 19:03:42:442
-0.148441,-4.271256,-4.572925,0.0,49.833187,24.039665,330.0,NaN,5.328,12.0,18.0,0 / 4,204526,2020-03-19 19:03:42:942
0.296881,-13.196839,-2.552219,0.0,49.833187,24.039665,330.0,NaN,5.328,12.0,18.0,0 / 4,205026,2020-03-19 19:03:43:442
-1.082179,0.019154,2.245761,0.0,49.833187,24.039665,330.0,NaN,5.328,12.0,18.0,0 / 9,205526,2020-03-19 19:03:43:942
-1.594538,-7.987056,1.752556,0.0,49.833187,24.039665,330.0,NaN,5.328,12.0,18.0,0 / 9,206026,2020-03-19 19:03:44:442
-13.120225,-15.375564,-13.939042,0.0,49.833187,24.039665,330.0,NaN,5.328,12.0,18.0,10 / 16,206526,2020-03-19 19:03:44:942
-5.204994,-7.896077,-4.012682,0.0,49.833523,24.040295,254.0,NaN,9.216,43.5,19.1,10 / 16,207026,2020-03-19 19:03:45:442
-1.551443,-1.742979,3.576938,0.0,49.833523,24.040295,254.0,NaN,9.216,43.5,19.1,10 / 16,207525,2020-03-19 19:03:45:941
-0.986411,-7.441179,0.737414,0.0,49.833523,24.040295,254.0,NaN,9.216,43.5,19.1,10 / 16,208026,2020-03-19 19:03:46:442
2.892196,-9.964667,-1.010353,0.0,49.833523,24.040295,254.0,NaN,9.216,43.5,19.1,10 / 16,208526,2020-03-19 19:03:46:942
3.126828,-12.708423,-2.331952,0.0,49.833523,24.040295,254.0,NaN,9.216,43.5,19.1,10 / 16,209025,2020-03-19 19:03:47:441
-12.243947,-13.374011,-3.20823,0.0,49.833523,24.040295,254.0,NaN,9.216,43.5,19.1,10 / 16,209526,2020-03-19 19:03:47:942
-2.987964,0.948104,-6.943185,0.0,49.833523,24.040295,254.0,NaN,9.216,43.5,19.1,10 / 16,210026,2020-03-19 19:03:48:442
-2.528277,-13.431472,-3.912125,0.0,49.833523,24.040295,254.0,NaN,9.216,43.5,19.1,10 / 16,210526,2020-03-19 19:03:48:942
-8.791509,-24.641125,-7.987056,0.0,49.833523,24.040295,254.0,NaN,9.216,43.5,19.1,10 / 16,211026,2020-03-19 19:03:49:442
-5.659893,-13.000515,2.126051,0.0,49.833523,24.040295,254.0,NaN,9.216,43.5,19.1,10 / 16,211526,2020-03-19 19:03:49:942
-8.925584,-7.307103,-7.508216,0.0,49.833523,24.040295,254.0,NaN,9.216,43.5,19.1,10 / 16,212026,2020-03-19 19:03:50:442
-4.76925,-10.979809,-2.298433,0.0,49.833523,24.040295,254.0,NaN,9.216,43.5,19.1,10 / 16,212526,2020-03-19 19:03:50:942
-2.557007,-4.01747,-3.189077,0.0,49.833523,24.040295,254.0,NaN,9.216,43.5,19.1,10 / 16,213026,2020-03-19 19:03:51:442
-2.499546,-7.187393,-0.033519,0.0,49.833523,24.040295,254.0,NaN,9.216,43.5,19.1,10 / 16,213526,2020-03-19 19:03:51:942
-2.001553,-2.896984,2.662352,0.0,49.833523,24.040295,254.0,NaN,9.216,43.5,19.1,10 / 16,214026,2020-03-19 19:03:52:442
-6.454767,-6.588843,-0.550666,0.0,49.833523,24.040295,254.0,NaN,9.216,43.5,19.1,10 / 16,214526,2020-03-19 19:03:52:942
-0.924162,-1.94888,3.39019,0.0,49.833523,24.040295,254.0,NaN,9.216,43.5,19.1,10 / 16,215026,2020-03-19 19:03:53:442
-3.960009,-8.561666,-1.953669,0.0,49.833523,24.040295,254.0,NaN,9.216,43.5,19.1,10 / 16,215525,2020-03-19 19:03:53:941
-4.390966,-10.793061,-1.436521,0.0,49.833523,24.040295,254.0,NaN,9.216,43.5,19.1,10 / 16,216025,2020-03-19 19:03:54:441
1.723825,-7.378929,18.890251,0.0,49.833523,24.040295,254.0,NaN,9.216,43.5,19.1,10 / 16,216525,2020-03-19 19:03:54:941
-1.833958,-15.073894,-3.931279,0.0,49.833523,24.040295,254.0,NaN,9.216,43.5,19.1,10 / 16,217026,2020-03-19 19:03:55:442
-3.653552,-7.015011,-1.115698,0.0,49.833523,24.040295,254.0,NaN,9.216,43.5,19.1,10 / 16,217525,2020-03-19 19:03:55:941
1.537078,-11.745954,-0.407014,0.0,49.833523,24.040295,254.0,NaN,9.216,43.5,19.1,10 / 16,218025,2020-03-19 19:03:56:441
-2.015918,-1.115698,2.48997,0.0,49.833523,24.040295,254.0,NaN,9.216,43.5,19.1,10 / 16,218525,2020-03-19 19:03:56:941
-2.75812,-11.626244,-3.787627,0.0,49.833523,24.040295,254.0,NaN,9.216,43.5,19.1,10 / 16,219025,2020-03-19 19:03:57:441
-2.700659,-2.264915,-1.541866,0.0,49.833523,24.040295,254.0,NaN,9.216,43.5,19.1,10 / 16,219526,2020-03-19 19:03:57:942
-1.862689,-7.177817,-0.871489,0.0,49.833523,24.040295,254.0,NaN,9.216,43.5,19.1,10 / 16,220026,2020-03-19 19:03:58:442
-4.979939,-11.449073,-2.140416,0.0,49.833523,24.040295,254.0,NaN,9.216,43.5,19.1,10 / 16,220526,2020-03-19 19:03:58:942
-4.448426,-18.540697,-5.094861,0.0,49.833523,24.040295,254.0,NaN,9.216,43.5,19.1,10 / 16,221026,2020-03-19 19:03:59:442
-0.54109,-13.733141,-3.902549,0.0,49.833523,24.040295,254.0,NaN,9.216,43.5,19.1,10 / 16,221526,2020-03-19 19:03:59:942
-4.022259,-1.302446,-3.251326,0.0,49.833523,24.040295,254.0,NaN,9.216,43.5,19.1,10 / 16,222026,2020-03-19 19:04:00:442
-0.033519,-12.588713,-3.351882,0.0,49.833523,24.040295,254.0,NaN,9.216,43.5,19.1,10 / 16,222526,2020-03-19 19:04:00:942
-2.63841,-1.010353,1.80044,0.0,49.833523,24.040295,254.0,NaN,9.216,43.5,19.1,0 / 0,223026,2020-03-19 19:04:01:442
-6.153098,-13.057976,-0.215478,0.0,49.833523,24.040295,254.0,NaN,9.216,43.5,19.1,0 / 0,223526,2020-03-19 19:04:01:942
-4.352658,-9.121908,-0.158017,0.0,49.833523,24.040295,254.0,NaN,9.216,43.5,19.1,0 / 5,224026,2020-03-19 19:04:02:442
-3.74932,-6.770802,-0.933739,0.0,49.833523,24.040295,254.0,NaN,9.216,43.5,19.1,0 / 5,224526,2020-03-19 19:04:02:942
-6.722918,-6.038176,1.872266,0.0,49.833523,24.040295,254.0,NaN,9.216,43.5,19.1,0 / 5,225026,2020-03-19 19:04:03:442
-5.760449,-12.181698,-0.651223,0.0,49.833523,24.040295,254.0,NaN,9.216,43.5,19.1,0 / 5,225526,2020-03-19 19:04:03:942
-2.82037,-8.772355,-7.599196,0.0,49.833523,24.040295,254.0,NaN,9.216,43.5,19.1,0 / 12,226026,2020-03-19 19:04:04:442
-2.135628,-10.596737,-0.220267,0.0,49.833523,24.040295,254.0,NaN,9.216,43.5,19.1,0 / 12,226526,2020-03-19 19:04:04:942
-3.969586,-7.570465,-1.556231,0.0,49.833523,24.040295,254.0,NaN,9.216,43.5,19.1,0 / 14,227026,2020-03-19 19:04:05:442
-4.793192,-8.868123,0.402226,0.0,49.833523,24.040295,254.0,NaN,9.216,43.5,19.1,0 / 14,227526,2020-03-19 19:04:05:942
-2.691083,-10.160992,0.253785,0.0,49.833523,24.040295,254.0,NaN,9.216,43.5,19.1,0 / 17,228026,2020-03-19 19:04:06:442
-3.572149,-10.160992,-2.461239,0.0,49.833523,24.040295,254.0,NaN,9.216,43.5,19.1,0 / 17,228526,2020-03-19 19:04:06:942
4.855441,0.718261,20.867863,0.0,49.833523,24.040295,254.0,NaN,9.216,43.5,19.1,0 / 18,229026,2020-03-19 19:04:07:442
-1.814805,-9.399636,-0.885855,0.0,49.833523,24.040295,254.0,NaN,9.216,43.5,19.1,0 / 18,229526,2020-03-19 19:04:07:942
-0.344765,-9.65821,-0.383072,0.0,49.833523,24.040295,254.0,NaN,9.216,43.5,19.1,0 / 19,230025,2020-03-19 19:04:08:441
-24.665066,-38.441303,-10.721235,0.0,49.833523,24.040295,254.0,NaN,9.216,43.5,19.1,13 / 13,230526,2020-03-19 19:04:08:942
-2.686294,-10.022128,0.761356,0.0,49.833523,24.040295,254.0,NaN,9.216,43.5,19.1,18 / 19,231026,2020-03-19 19:04:09:442
-1.058237,-6.71813,0.320823,0.0,49.833523,24.040295,254.0,NaN,9.216,43.5,19.1,18 / 19,231526,2020-03-19 19:04:09:942
-0.339977,-14.480132,-0.272939,0.0,49.833523,24.040295,254.0,NaN,9.216,43.5,19.1,18 / 19,232025,2020-03-19 19:04:10:441
-2.470816,-10.19451,-1.905785,0.0,49.833523,24.040295,254.0,NaN,9.216,43.5,19.1,18 / 19,232526,2020-03-19 19:04:10:942
-6.26802,-5.51624,-1.450886,0.0,49.833523,24.040295,254.0,NaN,9.216,43.5,19.1,18 / 19,233026,2020-03-19 19:04:11:442
-6.258443,-6.344634,-2.015918,0.0,49.833523,24.040295,254.0,NaN,9.216,43.5,19.1,18 / 19,233526,2020-03-19 19:04:11:942
-1.690306,-11.453861,-1.766921,0.0,49.833523,24.040295,254.0,NaN,9.216,43.5,19.1,18 / 19,234025,2020-03-19 19:04:12:441
-3.203442,-4.941632,-5.137956,0.0,49.833523,24.040295,254.0,NaN,9.216,43.5,19.1,18 / 19,234526,2020-03-19 19:04:12:942
-2.269703,-8.508993,0.584185,0.0,49.833523,24.040295,254.0,NaN,9.216,43.5,19.1,18 / 19,235026,2020-03-19 19:04:13:442
-9.011775,-9.782708,-2.140416,0.0,49.833523,24.040295,254.0,NaN,9.216,43.5,19.1,18 / 19,235525,2020-03-19 19:04:13:941
-1.273715,-5.228936,2.844312,0.0,49.833523,24.040295,254.0,NaN,9.216,43.5,19.1,18 / 19,236026,2020-03-19 19:04:14:442
-5.137956,-10.16578,-3.347094,0.0,49.833523,24.040295,254.0,NaN,9.216,43.5,19.1,18 / 19,236526,2020-03-19 19:04:14:942
-2.652775,-7.891289,-0.804452,0.0,49.833523,24.040295,254.0,NaN,9.216,43.5,19.1,18 / 19,237026,2020-03-19 19:04:15:442
-0.679953,-5.343858,-2.312799,0.0,49.833523,24.040295,254.0,NaN,9.216,43.5,19.1,18 / 19,237526,2020-03-19 19:04:15:942
-3.572149,-8.652645,1.278504,0.0,49.833523,24.040295,254.0,NaN,9.216,43.5,19.1,18 / 19,238026,2020-03-19 19:04:16:442
-2.935291,-9.141062,-0.919373,0.0,49.833523,24.040295,254.0,NaN,9.216,43.5,19.1,18 / 19,238526,2020-03-19 19:04:16:942
1.599327,-0.905008,16.127342,0.0,49.833523,24.040295,254.0,NaN,9.216,43.5,19.1,18 / 19,239026,2020-03-19 19:04:17:442
-0.158017,-10.25676,-1.417367,0.0,49.833523,24.040295,254.0,NaN,9.216,43.5,19.1,18 / 19,239525,2020-03-19 19:04:17:941
-5.544971,-12.694057,-12.545617,0.0,49.833523,24.040295,254.0,NaN,9.216,43.5,19.1,18 / 19,240026,2020-03-19 19:04:18:442
-2.858677,-9.14585,-1.024718,0.0,49.833523,24.040295,254.0,NaN,9.216,43.5,19.1,18 / 19,240526,2020-03-19 19:04:18:942
-6.828263,-9.131485,-1.541866,0.0,49.833523,24.040295,254.0,NaN,9.216,43.5,19.1,18 / 19,241026,2020-03-19 19:04:19:442
-3.098097,-16.903065,1.513135,0.0,49.833523,24.040295,254.0,NaN,9.216,43.5,19.1,18 / 19,241526,2020-03-19 19:04:19:942
-2.873042,-10.529699,-1.924938,0.0,49.833523,24.040295,254.0,NaN,9.216,43.5,19.1,18 / 19,242025,2020-03-19 19:04:20:441
-4.103661,-4.879383,-11.224017,0.0,49.833523,24.040295,254.0,NaN,9.216,43.5,19.1,18 / 19,242526,2020-03-19 19:04:20:942
-0.6608,-6.976703,0.790087,0.0,49.833523,24.040295,254.0,NaN,9.216,43.5,19.1,18 / 19,243026,2020-03-19 19:04:21:442
-1.393425,-3.653552,2.782062,0.0,49.833523,24.040295,254.0,NaN,9.216,43.5,19.1,18 / 19,243526,2020-03-19 19:04:21:942
-5.425261,-10.429143,-0.90022,0.0,49.833523,24.040295,254.0,NaN,9.216,43.5,19.1,18 / 19,244025,2020-03-19 19:04:22:441
-12.555194,-16.328455,6.737284,0.0,49.833523,24.040295,254.0,NaN,9.216,43.5,19.1,18 / 19,244525,2020-03-19 19:04:22:941
-4.702212,-17.027563,0.847547,0.0,49.833523,24.040295,254.0,NaN,9.216,43.5,19.1,18 / 19,245026,2020-03-19 19:04:23:442
-14.887146,-16.654066,0.435745,0.0,49.833523,24.040295,254.0,NaN,9.216,43.5,19.1,18 / 19,245526,2020-03-19 19:04:23:942
16.79772,8.149863,35.24265,0.0,49.833523,24.040295,254.0,NaN,9.216,43.5,19.1,18 / 19,246026,2020-03-19 19:04:24:442
-3.878607,-12.631808,-0.766144,0.0,49.833523,24.040295,254.0,NaN,9.216,43.5,19.1,18 / 19,246526,2020-03-19 19:04:24:942
-4.285621,-8.968679,-14.738706,0.0,49.833523,24.040295,254.0,NaN,9.216,43.5,19.1,18 / 19,247026,2020-03-19 19:04:25:442
-3.342306,-7.484274,2.011129,0.0,49.833523,24.040295,254.0,NaN,9.216,43.5,19.1,18 / 19,247525,2020-03-19 19:04:25:941
-1.781286,-5.530606,2.643199,0.0,49.833523,24.040295,254.0,NaN,9.216,43.5,19.1,18 / 19,248025,2020-03-19 19:04:26:441
-5.042188,-8.930372,-0.081403,0.0,49.833523,24.040295,254.0,NaN,9.216,43.5,19.1,18 / 19,248526,2020-03-19 19:04:26:942
-11.386824,-18.037916,-3.050213,0.0,49.833523,24.040295,254.0,NaN,9.216,43.5,19.1,18 / 19,249025,2020-03-19 19:04:27:441
-5.616797,-6.574477,0.435745,0.0,49.833523,24.040295,254.0,NaN,9.216,43.5,19.1,18 / 19,249525,2020-03-19 19:04:27:941
-9.859323,-11.324574,0.847547,0.0,49.833523,24.040295,254.0,NaN,9.216,43.5,19.1,18 / 19,250026,2020-03-19 19:04:28:442
1.398214,-8.269572,10.544065,0.0,49.833523,24.040295,254.0,NaN,9.216,43.5,19.1,18 / 19,250526,2020-03-19 19:04:28:942
-1.958457,-14.66688,-2.475604,0.0,49.833523,24.040295,254.0,NaN,9.216,43.5,19.1,18 / 19,251025,2020-03-19 19:04:29:441
-13.522451,-16.084248,-19.440918,0.0,49.833523,24.040295,254.0,NaN,9.216,43.5,19.1,18 / 19,251525,2020-03-19 19:04:29:941
-1.728614,-6.804321,-0.071826,0.0,49.833523,24.040295,254.0,NaN,9.216,43.5,19.1,18 / 19,252025,2020-03-19 19:04:30:441
-0.497994,-0.871489,3.907337,0.0,49.833523,24.040295,254.0,NaN,9.216,43.5,19.1,18 / 19,252525,2020-03-19 19:04:30:941
-5.679046,-5.889736,-1.000776,0.0,49.833523,24.040295,254.0,NaN,9.216,43.5,19.1,18 / 19,253026,2020-03-19 19:04:31:442
-10.453085,-13.680469,-0.957681,0.0,49.833523,24.040295,254.0,NaN,9.216,43.5,19.1,18 / 19,253526,2020-03-19 19:04:31:942
-4.55856,-7.982268,-0.675165,0.0,49.833523,24.040295,254.0,NaN,9.216,43.5,19.1,18 / 19,254026,2020-03-19 19:04:32:442
-8.657434,-15.136143,6.344635,0.0,49.833523,24.040295,254.0,NaN,9.216,43.5,19.1,18 / 19,254526,2020-03-19 19:04:32:942
-12.215217,-15.98369,-14.393941,0.0,49.833523,24.040295,254.0,NaN,9.216,43.5,19.1,18 / 19,255026,2020-03-19 19:04:33:442
-0.459687,-13.757083,-2.135628,0.0,49.833523,24.040295,254.0,NaN,9.216,43.5,19.1,18 / 19,255526,2020-03-19 19:04:33:942
-2.590526,-2.269703,0.68953,0.0,49.833523,24.040295,254.0,NaN,9.216,43.5,19.1,18 / 19,256026,2020-03-19 19:04:34:442
-1.685518,-7.771579,1.316811,0.0,49.833523,24.040295,254.0,NaN,9.216,43.5,19.1,18 / 19,256526,2020-03-19 19:04:34:942
-0.162806,-6.598419,1.517924,0.0,49.833523,24.040295,254.0,NaN,9.216,43.5,19.1,18 / 19,257026,2020-03-19 19:04:35:442
0.976834,-11.827356,-0.440533,0.0,49.833523,24.040295,254.0,NaN,9.216,43.5,19.1,18 / 19,257526,2020-03-19 19:04:35:942
-7.934384,-15.399506,6.536171,0.0,49.833523,24.040295,254.0,NaN,9.216,43.5,19.1,18 / 19,258025,2020-03-19 19:04:36:441
-11.281479,-15.150508,-12.689269,0.0,49.833523,24.040295,254.0,NaN,9.216,43.5,19.1,18 / 19,258526,2020-03-19 19:04:36:942
-4.031835,-11.745954,0.306458,0.0,49.833523,24.040295,254.0,NaN,9.216,43.5,19.1,18 / 19,259025,2020-03-19 19:04:37:441
-2.499546,-3.361459,-2.896984,0.0,49.833523,24.040295,254.0,NaN,9.216,43.5,19.1,18 / 19,259525,2020-03-19 19:04:37:941
-0.881066,-13.192051,-0.952892,0.0,49.833523,24.040295,254.0,NaN,9.216,43.5,19.1,18 / 19,260025,2020-03-19 19:04:38:441
-1.810016,-2.149993,1.551443,0.0,49.833523,24.040295,254.0,NaN,9.216,43.5,19.1,18 / 19,260525,2020-03-19 19:04:38:941
-0.914585,-8.092401,-0.416591,0.0,49.833523,24.040295,254.0,NaN,9.216,43.5,19.1,18 / 19,261026,2020-03-19 19:04:39:442
-1.225831,-10.845734,-1.359906,0.0,49.833523,24.040295,254.0,NaN,9.216,43.5,19.1,18 / 19,261526,2020-03-19 19:04:39:942
-2.834735,-23.784,-5.932832,0.0,49.833523,24.040295,254.0,NaN,9.216,43.5,19.1,18 / 19,262026,2020-03-19 19:04:40:442
-1.364695,-15.562311,-3.203442,0.0,49.833523,24.040295,254.0,NaN,9.216,43.5,19.1,18 / 19,262525,2020-03-19 19:04:40:941
-5.415684,-7.795521,-4.912902,0.0,49.833523,24.040295,254.0,NaN,9.216,43.5,19.1,18 / 19,263025,2020-03-19 19:04:41:441
-4.343082,-9.423578,-1.58975,0.0,49.833523,24.040295,254.0,NaN,9.216,43.5,19.1,18 / 19,263525,2020-03-19 19:04:41:941
-13.55597,-16.452953,-24.708162,0.0,49.833523,24.040295,254.0,NaN,9.216,43.5,19.1,18 / 19,264025,2020-03-19 19:04:42:441
-4.46758,-7.690176,-1.273715,0.0,49.833523,24.040295,254.0,NaN,9.216,43.5,19.1,18 / 19,264525,2020-03-19 19:04:42:941
-1.929727,-1.833958,2.949657,0.0,49.833523,24.040295,254.0,NaN,9.216,43.5,19.1,18 / 19,265026,2020-03-19 19:04:43:442
-6.325481,-6.392518,0.272939,0.0,49.833523,24.040295,254.0,NaN,9.216,43.5,19.1,18 / 19,265526,2020-03-19 19:04:43:942
-10.462662,-13.962984,-1.077391,0.0,49.833523,24.040295,254.0,NaN,9.216,43.5,19.1,18 / 19,266026,2020-03-19 19:04:44:442
-6.775591,2.116475,7.445967,0.0,49.833523,24.040295,254.0,NaN,9.216,43.5,19.1,18 / 19,266526,2020-03-19 19:04:44:942
-1.695095,-14.355634,-3.394978,0.0,49.833523,24.040295,254.0,NaN,9.216,43.5,19.1,18 / 19,267026,2020-03-19 19:04:45:442
-14.896723,-16.22311,-16.122555,0.0,49.833523,24.040295,254.0,NaN,9.216,43.5,19.1,18 / 19,267526,2020-03-19 19:04:45:942
-5.39653,-9.222465,-4.76925,0.0,49.833523,24.040295,254.0,NaN,9.216,43.5,19.1,18 / 19,268026,2020-03-19 19:04:46:442
-1.393425,-5.353435,-7.733271,0.0,49.833523,24.040295,254.0,NaN,9.216,43.5,19.1,18 / 19,268526,2020-03-19 19:04:46:942
-2.580949,-7.671022,-2.480393,0.0,49.833523,24.040295,254.0,NaN,9.216,43.5,19.1,18 / 19,269026,2020-03-19 19:04:47:442
-1.273715,-1.426944,4.046201,0.0,49.833523,24.040295,254.0,NaN,9.216,43.5,19.1,18 / 19,269526,2020-03-19 19:04:47:942
-7.058106,-4.079719,-0.488417,0.0,49.833523,24.040295,254.0,NaN,9.216,43.5,19.1,18 / 19,270026,2020-03-19 19:04:48:442
-9.366117,-12.789825,2.868254,0.0,49.833523,24.040295,254.0,NaN,9.216,43.5,19.1,18 / 19,270526,2020-03-19 19:04:48:942
-10.041282,-12.943054,1.996764,0.0,49.833523,24.040295,254.0,NaN,9.216,43.5,19.1,18 / 19,271026,2020-03-19 19:04:49:442
-2.75812,-12.129025,0.062249,0.0,49.833523,24.040295,254.0,NaN,9.216,43.5,19.1,18 / 19,271526,2020-03-19 19:04:49:942
-2.523488,-4.371812,-2.916138,0.0,49.833523,24.040295,254.0,NaN,9.216,43.5,19.1,18 / 19,272026,2020-03-19 19:04:50:442
-2.341529,-11.717223,-2.451662,0.0,49.833523,24.040295,254.0,NaN,9.216,43.5,19.1,18 / 19,272526,2020-03-19 19:04:50:942
-1.264138,-3.323152,-2.03986,0.0,49.833523,24.040295,254.0,NaN,9.216,43.5,19.1,18 / 19,273026,2020-03-19 19:04:51:442
-1.551443,-9.299079,0.043096,0.0,49.833523,24.040295,254.0,NaN,9.216,43.5,19.1,18 / 19,273526,2020-03-19 19:04:51:942
2.806004,-11.841722,-1.345541,0.0,49.833523,24.040295,254.0,NaN,9.216,43.5,19.1,18 / 19,274026,2020-03-19 19:04:52:442
-4.34787,-21.89737,-9.442732,0.0,49.833523,24.040295,254.0,NaN,9.216,43.5,19.1,18 / 19,274526,2020-03-19 19:04:52:942
-2.595315,-14.523228,-4.055777,0.0,49.833523,24.040295,254.0,NaN,9.216,43.5,19.1,18 / 19,275026,2020-03-19 19:04:53:442
-6.564901,-4.984728,-3.351882,0.0,49.833523,24.040295,254.0,NaN,9.216,43.5,19.1,18 / 19,275525,2020-03-19 19:04:53:941
0.11971,-11.540052,-1.47004,0.0,49.833523,24.040295,254.0,NaN,9.216,43.5,19.1,18 / 19,276025,2020-03-19 19:04:54:441
-7.364564,-2.03986,-5.918466,0.0,49.833523,24.040295,254.0,NaN,9.216,43.5,19.1,18 / 19,276526,2020-03-19 19:04:54:942
-3.950433,-10.596737,-0.225055,0.0,49.833523,24.040295,254.0,NaN,9.216,43.5,19.1,18 / 19,277026,2020-03-19 19:04:55:442
-2.001553,-1.077391,2.293645,0.0,49.833523,24.040295,254.0,NaN,9.216,43.5,19.1,18 / 19,277526,2020-03-19 19:04:55:942
-2.303222,-7.953538,-0.526724,0.0,49.833523,24.040295,254.0,NaN,9.216,43.5,19.1,18 / 19,278026,2020-03-19 19:04:56:442
-0.651223,-11.48738,-1.474828,0.0,49.833523,24.040295,254.0,NaN,9.216,43.5,19.1,18 / 19,278526,2020-03-19 19:04:56:942
0.497994,-13.76666,12.023681,0.0,49.833523,24.040295,254.0,NaN,9.216,43.5,19.1,18 / 19,279026,2020-03-19 19:04:57:442
-0.584185,-14.700398,-4.151545,0.0,49.833523,24.040295,254.0,NaN,9.216,43.5,19.1,0 / 0,279525,2020-03-19 19:04:57:941
-2.528277,-3.193865,-2.078167,0.0,49.833523,24.040295,254.0,NaN,9.216,43.5,19.1,0 / 0,280026,2020-03-19 19:04:58:442
-1.455675,-12.785037,-3.117251,0.0,49.833523,24.040295,254.0,NaN,9.216,43.5,19.1,0 / 2,280526,2020-03-19 19:04:58:942
-2.207454,-0.636858,0.790087,0.0,49.833523,24.040295,254.0,NaN,9.216,43.5,19.1,0 / 2,281026,2020-03-19 19:04:59:442
-0.751779,-9.222465,0.02873,0.0,49.833523,24.040295,254.0,NaN,9.216,43.5,19.1,0 / 3,281526,2020-03-19 19:04:59:942
-1.608903,-1.503559,1.216255,0.0,49.833523,24.040295,254.0,NaN,9.216,43.5,19.1,6 / 6,282026,2020-03-19 19:05:00:442
-1.896208,-8.03494,-0.746991,0.0,49.833523,24.040295,254.0,NaN,9.216,43.5,19.1,6 / 6,282526,2020-03-19 19:05:00:942
2.925715,-9.801862,-0.579397,0.0,49.834587,24.041117,323.0,NaN,7.056,10.5,1.5,13 / 14,283026,2020-03-19 19:05:01:442
-2.724601,-16.883911,-2.298433,0.0,49.834587,24.041117,323.0,NaN,7.056,10.5,1.5,13 / 14,283526,2020-03-19 19:05:01:942
-4.10845,-13.038822,2.691083,0.0,49.834587,24.041117,323.0,NaN,7.056,10.5,1.5,13 / 14,284026,2020-03-19 19:05:02:442
-3.289633,-5.664681,-9.160215,0.0,49.834587,24.041117,323.0,NaN,7.056,10.5,1.5,13 / 14,284526,2020-03-19 19:05:02:942
1.446098,-13.249513,-1.642422,0.0,49.834587,24.041117,323.0,NaN,7.056,10.5,1.5,13 / 14,285026,2020-03-19 19:05:03:442
-2.437297,-1.000776,2.619257,0.0,49.834587,24.041117,323.0,NaN,7.056,10.5,1.5,13 / 14,285526,2020-03-19 19:05:03:942
-0.770933,-9.773131,-1.584961,0.0,49.834587,24.041117,323.0,NaN,7.056,10.5,1.5,13 / 14,286026,2020-03-19 19:05:04:442
-3.155558,-1.331176,2.844312,0.0,49.834587,24.041117,323.0,NaN,7.056,10.5,1.5,13 / 14,286526,2020-03-19 19:05:04:942
-0.608127,-8.935161,-0.143652,0.0,49.834587,24.041117,323.0,NaN,7.056,10.5,1.5,13 / 14,287026,2020-03-19 19:05:05:442
2.58095,-11.027693,-1.115698,0.0,49.834587,24.041117,323.0,NaN,7.056,10.5,1.5,13 / 14,287526,2020-03-19 19:05:05:942
-1.570596,-17.439365,-3.672705,0.0,49.834587,24.041117,323.0,NaN,7.056,10.5,1.5,13 / 14,288026,2020-03-19 19:05:06:442
-8.437167,-9.715671,0.416591,0.0,49.834587,24.041117,323.0,NaN,7.056,10.5,1.5,13 / 14,288525,2020-03-19 19:05:06:941
-17.721882,-23.262064,-13.302185,0.0,49.834587,24.041117,323.0,NaN,7.056,10.5,1.5,13 / 14,289025,2020-03-19 19:05:07:441
-2.365471,-13.239936,-1.675941,0.0,49.834587,24.041117,323.0,NaN,7.056,10.5,1.5,13 / 14,289525,2020-03-19 19:05:07:941
-2.82037,-3.457227,-0.967257,0.0,49.834587,24.041117,323.0,NaN,7.056,10.5,1.5,13 / 14,290025,2020-03-19 19:05:08:441
-1.192312,-8.413225,0.512359,0.0,49.834587,24.041117,323.0,NaN,7.056,10.5,1.5,13 / 14,290526,2020-03-19 19:05:08:942
-2.82037,-2.643199,-0.47884,0.0,49.834587,24.041117,323.0,NaN,7.056,10.5,1.5,13 / 14,291026,2020-03-19 19:05:09:442
-0.316035,-8.657434,-0.531513,0.0,49.834587,24.041117,323.0,NaN,7.056,10.5,1.5,13 / 14,291526,2020-03-19 19:05:09:942
0.881066,-9.787497,-0.363919,0.0,49.834587,24.041117,323.0,NaN,7.056,10.5,1.5,13 / 14,292026,2020-03-19 19:05:10:442
-3.744531,-21.973984,-3.878607,0.0,49.834587,24.041117,323.0,NaN,7.056,10.5,1.5,13 / 14,292526,2020-03-19 19:05:10:942
-7.010222,-9.753978,-0.421379,0.0,49.834587,24.041117,323.0,NaN,7.056,10.5,1.5,13 / 14,293026,2020-03-19 19:05:11:442
-9.969456,-10.864887,-6.488286,0.0,49.834587,24.041117,323.0,NaN,7.056,10.5,1.5,13 / 14,293526,2020-03-19 19:05:11:942
1.527501,-13.187263,-1.235408,0.0,49.834587,24.041117,323.0,NaN,7.056,10.5,1.5,13 / 14,294026,2020-03-19 19:05:12:442
-1.465251,-0.402226,3.572149,0.0,49.834587,24.041117,323.0,NaN,7.056,10.5,1.5,13 / 14,294526,2020-03-19 19:05:12:942
1.417368,-12.339716,-1.326388,0.0,49.834587,24.041117,323.0,NaN,7.056,10.5,1.5,13 / 14,295026,2020-03-19 19:05:13:442
-2.829946,-1.766921,2.600103,0.0,49.834587,24.041117,323.0,NaN,7.056,10.5,1.5,13 / 14,295526,2020-03-19 19:05:13:942
-0.837971,-8.322244,1.637634,0.0,49.834587,24.041117,323.0,NaN,7.056,10.5,1.5,13 / 14,296026,2020-03-19 19:05:14:442
-1.651999,-1.824382,4.64954,0.0,49.834587,24.041117,323.0,NaN,7.056,10.5,1.5,13 / 14,296526,2020-03-19 19:05:14:942
-5.24809,-8.413225,0.167594,0.0,49.834587,24.041117,323.0,NaN,7.056,10.5,1.5,13 / 14,297026,2020-03-19 19:05:15:442
-9.797073,-13.139379,-1.896208,0.0,49.834587,24.041117,323.0,NaN,7.056,10.5,1.5,13 / 14,297526,2020-03-19 19:05:15:942
2.264915,-2.533065,17.78892,0.0,49.834587,24.041117,323.0,NaN,7.056,10.5,1.5,13 / 14,298026,2020-03-19 19:05:16:442
-1.283292,-14.202404,-3.160346,0.0,49.834587,24.041117,323.0,NaN,7.056,10.5,1.5,13 / 14,298526,2020-03-19 19:05:16:942
-12.785037,-15.782578,-14.025233,0.0,49.834587,24.041117,323.0,NaN,7.056,10.5,1.5,13 / 14,299026,2020-03-19 19:05:17:442
-5.24809,-6.823475,-0.306458,0.0,49.834587,24.041117,323.0,NaN,7.056,10.5,1.5,13 / 14,299526,2020-03-19 19:05:17:942
-16.050728,-16.773777,-19.9437,0.0,49.834587,24.041117,323.0,NaN,7.056,10.5,1.5,13 / 14,300026,2020-03-19 19:05:18:442
-5.243302,-7.714118,-2.896984,0.0,49.834587,24.041117,323.0,NaN,7.056,10.5,1.5,13 / 14,300526,2020-03-19 19:05:18:942
-2.5187,-1.762132,2.595315,0.0,49.834587,24.041117,323.0,NaN,7.056,10.5,1.5,13 / 14,301026,2020-03-19 19:05:19:442
-4.094085,-8.010998,-1.359906,0.0,49.834587,24.041117,323.0,NaN,7.056,10.5,1.5,13 / 14,301526,2020-03-19 19:05:19:942
-9.141062,-10.836157,0.378284,0.0,49.834587,24.041117,323.0,NaN,7.056,10.5,1.5,13 / 14,302025,2020-03-19 19:05:20:441
0.761356,-1.273715,3.912126,0.0,49.834587,24.041117,323.0,NaN,7.056,10.5,1.5,13 / 14,302525,2020-03-19 19:05:20:941
-2.106897,-13.378799,-3.600879,0.0,49.834587,24.041117,323.0,NaN,7.056,10.5,1.5,13 / 14,303026,2020-03-19 19:05:21:442
-4.113238,-6.282385,-3.351882,0.0,49.834587,24.041117,323.0,NaN,7.056,10.5,1.5,13 / 14,303526,2020-03-19 19:05:21:942
2.102109,-13.94383,0.292093,0.0,49.834587,24.041117,323.0,NaN,7.056,10.5,1.5,13 / 14,304026,2020-03-19 19:05:22:442
-3.53863,-1.532289,2.671929,0.0,49.834587,24.041117,323.0,NaN,7.056,10.5,1.5,13 / 14,304526,2020-03-19 19:05:22:942
1.417368,-13.196839,-2.700659,0.0,49.834587,24.041117,323.0,NaN,7.056,10.5,1.5,13 / 14,305025,2020-03-19 19:05:23:441
-2.537854,-1.13964,2.590526,0.0,49.834587,24.041117,323.0,NaN,7.056,10.5,1.5,13 / 14,305525,2020-03-19 19:05:23:941
-1.024718,-8.101978,0.043096,0.0,49.834587,24.041117,323.0,NaN,7.056,10.5,1.5,13 / 14,306026,2020-03-19 19:05:24:442
2.456451,-8.485051,-0.603339,0.0,49.834587,24.041117,323.0,NaN,7.056,10.5,1.5,13 / 14,306525,2020-03-19 19:05:24:941
0.153229,-13.637373,-2.509123,0.0,49.834587,24.041117,323.0,NaN,7.056,10.5,1.5,13 / 14,307026,2020-03-19 19:05:25:442
-9.050082,-14.973337,6.335058,0.0,49.834587,24.041117,323.0,NaN,7.056,10.5,1.5,13 / 14,307526,2020-03-19 19:05:25:942
-1.8579,-2.106897,13.31655,0.0,49.834587,24.041117,323.0,NaN,7.056,10.5,1.5,13 / 14,308026,2020-03-19 19:05:26:442
-1.848324,-14.93503,-1.8579,0.0,49.834587,24.041117,323.0,NaN,7.056,10.5,1.5,13 / 14,308526,2020-03-19 19:05:26:942
-13.268666,-19.139248,-17.903843,0.0,49.834587,24.041117,323.0,NaN,7.056,10.5,1.5,13 / 14,309025,2020-03-19 19:05:27:441
-4.252102,-8.475474,-2.111686,0.0,49.834587,24.041117,323.0,NaN,7.056,10.5,1.5,13 / 14,309525,2020-03-19 19:05:27:941
-12.11466,-17.448942,-19.182344,0.0,49.834587,24.041117,323.0,NaN,7.056,10.5,1.5,13 / 14,310025,2020-03-19 19:05:28:441
-4.400542,-9.983821,-2.097321,0.0,49.834587,24.041117,323.0,NaN,7.056,10.5,1.5,13 / 14,310525,2020-03-19 19:05:28:941
-2.149993,-2.331952,1.987187,0.0,49.834587,24.041117,323.0,NaN,7.056,10.5,1.5,13 / 14,311025,2020-03-19 19:05:29:441
-5.391742,-7.517793,-1.058237,0.0,49.834587,24.041117,323.0,NaN,7.056,10.5,1.5,13 / 14,311525,2020-03-19 19:05:29:941
-8.508993,-12.89517,-0.301669,0.0,49.834587,24.041117,323.0,NaN,7.056,10.5,1.5,13 / 14,312026,2020-03-19 19:05:30:442
-6.995857,-2.619257,-3.519476,0.0,49.834587,24.041117,323.0,NaN,7.056,10.5,1.5,13 / 14,312526,2020-03-19 19:05:30:942
-3.423708,-13.737929,-4.103661,0.0,49.834587,24.041117,323.0,NaN,7.056,10.5,1.5,13 / 14,313025,2020-03-19 19:05:31:441
-4.759673,-7.086837,-4.989516,0.0,49.834587,24.041117,323.0,NaN,7.056,10.5,1.5,13 / 14,313525,2020-03-19 19:05:31:941
-2.149993,-15.413871,-3.294421,0.0,49.834587,24.041117,323.0,NaN,7.056,10.5,1.5,13 / 14,314025,2020-03-19 19:05:32:441
-1.513135,-2.528277,-2.786851,0.0,49.834587,24.041117,323.0,NaN,7.056,10.5,1.5,13 / 14,314525,2020-03-19 19:05:32:941
1.35033,-12.152967,-1.455675,0.0,49.834587,24.041117,323.0,NaN,7.056,10.5,1.5,13 / 14,315026,2020-03-19 19:05:33:442
-1.675941,-1.637634,3.280056,0.0,49.834587,24.041117,323.0,NaN,7.056,10.5,1.5,13 / 14,315526,2020-03-19 19:05:33:942
-1.82917,-7.594407,-0.967257,0.0,49.834587,24.041117,323.0,NaN,7.056,10.5,1.5,13 / 14,316026,2020-03-19 19:05:34:442
-0.684742,-9.983821,-1.651999,0.0,49.834587,24.041117,323.0,NaN,7.056,10.5,1.5,13 / 14,316525,2020-03-19 19:05:34:941
-0.684742,-16.582241,5.147534,0.0,49.834587,24.041117,323.0,NaN,7.056,10.5,1.5,13 / 14,317025,2020-03-19 19:05:35:441
-1.675941,-15.279796,-4.01747,0.0,49.834587,24.041117,323.0,NaN,7.056,10.5,1.5,13 / 14,317525,2020-03-19 19:05:35:941
-4.084508,-6.124367,-1.939303,0.0,49.834587,24.041117,323.0,NaN,7.056,10.5,1.5,13 / 14,318026,2020-03-19 19:05:36:442
-2.063802,-15.040375,-3.452439,0.0,49.834587,24.041117,323.0,NaN,7.056,10.5,1.5,13 / 14,318526,2020-03-19 19:05:36:942
-4.601655,-9.682152,-2.686294,0.0,49.834587,24.041117,323.0,NaN,7.056,10.5,1.5,13 / 14,319026,2020-03-19 19:05:37:442
0.014365,-11.587936,-1.795651,0.0,49.834587,24.041117,323.0,NaN,7.056,10.5,1.5,13 / 14,319526,2020-03-19 19:05:37:942
-1.61848,-1.16837,2.930503,0.0,49.834587,24.041117,323.0,NaN,7.056,10.5,1.5,13 / 14,320026,2020-03-19 19:05:38:442
-1.714248,-8.197746,-0.579397,0.0,49.834587,24.041117,323.0,NaN,7.056,10.5,1.5,13 / 14,320526,2020-03-19 19:05:38:942
0.316035,-8.480263,0.229843,0.0,49.834587,24.041117,323.0,NaN,7.056,10.5,1.5,13 / 14,321026,2020-03-19 19:05:39:442
-1.728614,-11.324574,1.642422,0.0,49.834587,24.041117,323.0,NaN,7.056,10.5,1.5,13 / 14,321525,2020-03-19 19:05:39:941
-9.988609,-15.136143,-1.862689,0.0,49.834587,24.041117,323.0,NaN,7.056,10.5,1.5,13 / 14,322026,2020-03-19 19:05:40:442
-10.390836,6.502652,-2.710236,0.0,49.834587,24.041117,323.0,NaN,7.056,10.5,1.5,13 / 14,322526,2020-03-19 19:05:40:942
-10.232818,-12.689269,-0.995988,0.0,49.834587,24.041117,323.0,NaN,7.056,10.5,1.5,13 / 14,323026,2020-03-19 19:05:41:442
-0.454898,-2.662352,-8.307879,0.0,49.834587,24.041117,323.0,NaN,7.056,10.5,1.5,13 / 14,323526,2020-03-19 19:05:41:942
-3.05979,-14.350845,-3.500323,0.0,49.834587,24.041117,323.0,NaN,7.056,10.5,1.5,13 / 14,324026,2020-03-19 19:05:42:442
-11.932701,-16.01242,-15.428236,0.0,49.834587,24.041117,323.0,NaN,7.056,10.5,1.5,13 / 14,324526,2020-03-19 19:05:42:942
-3.122039,-8.949526,-1.939303,0.0,49.834587,24.041117,323.0,NaN,7.056,10.5,1.5,13 / 14,325026,2020-03-19 19:05:43:442
-1.584961,-0.713472,3.385401,0.0,49.834587,24.041117,323.0,NaN,7.056,10.5,1.5,13 / 14,325525,2020-03-19 19:05:43:941
-6.526593,-5.631162,-1.49877,0.0,49.834587,24.041117,323.0,NaN,7.056,10.5,1.5,13 / 14,326025,2020-03-19 19:05:44:441
0.584185,-10.012551,-2.806004,0.0,49.834587,24.041117,323.0,NaN,7.056,10.5,1.5,13 / 14,326526,2020-03-19 19:05:44:942
-2.810793,-19.541473,-5.291186,0.0,49.834587,24.041117,323.0,NaN,7.056,10.5,1.5,13 / 14,327025,2020-03-19 19:05:45:441
3.787627,-8.370129,-0.167594,0.0,49.834587,24.041117,323.0,NaN,7.056,10.5,1.5,13 / 14,327526,2020-03-19 19:05:45:942
-0.905008,-11.7268,1.450886,0.0,49.834587,24.041117,323.0,NaN,7.056,10.5,1.5,13 / 14,328026,2020-03-19 19:05:46:442
-9.993398,-12.248735,-0.148441,0.0,49.834587,24.041117,323.0,NaN,7.056,10.5,1.5,13 / 14,328526,2020-03-19 19:05:46:942
-5.00867,6.90009,2.035071,0.0,49.834587,24.041117,323.0,NaN,7.056,10.5,1.5,13 / 14,329026,2020-03-19 19:05:47:442
-1.307234,-12.799402,-3.289633,0.0,49.834587,24.041117,323.0,NaN,7.056,10.5,1.5,13 / 14,329526,2020-03-19 19:05:47:942
-8.15465,-12.981361,-12.909535,0.0,49.834587,24.041117,323.0,NaN,7.056,10.5,1.5,13 / 14,330026,2020-03-19 19:05:48:442
-1.991976,-11.061212,-2.513912,0.0,49.834587,24.041117,323.0,NaN,7.056,10.5,1.5,13 / 14,330525,2020-03-19 19:05:48:941
-2.715025,-1.364695,2.906561,0.0,49.834587,24.041117,323.0,NaN,7.056,10.5,1.5,13 / 14,331025,2020-03-19 19:05:49:441
-3.763685,-6.038176,-1.450886,0.0,49.834587,24.041117,323.0,NaN,7.056,10.5,1.5,13 / 14,331525,2020-03-19 19:05:49:941
-2.595315,-1.273715,2.542642,0.0,49.834587,24.041117,323.0,NaN,7.056,10.5,1.5,13 / 14,332025,2020-03-19 19:05:50:441
-1.273715,-8.829816,0.407014,0.0,49.834587,24.041117,323.0,NaN,7.056,10.5,1.5,13 / 14,332526,2020-03-19 19:05:50:942
2.643199,-10.520123,-0.416591,0.0,49.834587,24.041117,323.0,NaN,7.056,10.5,1.5,13 / 14,333026,2020-03-19 19:05:51:442
-5.401319,-21.001938,-6.962338,0.0,49.834587,24.041117,323.0,NaN,7.056,10.5,1.5,13 / 14,333526,2020-03-19 19:05:51:942
-5.659893,-12.014104,0.512359,0.0,49.834587,24.041117,323.0,NaN,7.056,10.5,1.5,13 / 14,334025,2020-03-19 19:05:52:441
-4.070143,-8.231265,-7.613561,0.0,49.834587,24.041117,323.0,NaN,7.056,10.5,1.5,13 / 14,334525,2020-03-19 19:05:52:941
-1.8579,-12.89517,-2.75812,0.0,49.834587,24.041117,323.0,NaN,7.056,10.5,1.5,13 / 14,335025,2020-03-19 19:05:53:441
-2.753332,-2.662352,0.9912,0.0,49.834587,24.041117,323.0,NaN,7.056,10.5,1.5,13 / 14,335526,2020-03-19 19:05:53:942
-1.043872,-9.423578,-1.25935,0.0,49.834587,24.041117,323.0,NaN,7.056,10.5,1.5,13 / 14,336026,2020-03-19 19:05:54:442
-2.413355,-1.412579,1.972822,0.0,49.834587,24.041117,323.0,NaN,7.056,10.5,1.5,13 / 14,336526,2020-03-19 19:05:54:942
-1.125275,-8.461109,-1.058237,0.0,49.834587,24.041117,323.0,NaN,7.056,10.5,1.5,13 / 14,337026,2020-03-19 19:05:55:442
-0.493206,-5.774814,2.427721,0.0,49.834587,24.041117,323.0,NaN,7.056,10.5,1.5,13 / 14,337526,2020-03-19 19:05:55:942
-2.686294,-9.572019,-0.593762,0.0,49.834587,24.041117,323.0,NaN,7.056,10.5,1.5,13 / 14,338026,2020-03-19 19:05:56:442
-9.208099,-15.2367,6.05733,0.0,49.834587,24.041117,323.0,NaN,7.056,10.5,1.5,13 / 14,338526,2020-03-19 19:05:56:942
1.086968,-18.918982,20.398598,0.0,49.834587,24.041117,323.0,NaN,7.056,10.5,1.5,13 / 14,339026,2020-03-19 19:05:57:442
-1.527501,-12.722788,-0.545878,0.0,49.834587,24.041117,323.0,NaN,7.056,10.5,1.5,13 / 14,339526,2020-03-19 19:05:57:942
-14.269443,-15.74427,-16.754623,0.0,49.834587,24.041117,323.0,NaN,7.056,10.5,1.5,13 / 14,340026,2020-03-19 19:05:58:442
0.181959,-10.314221,0.387861,0.0,49.834587,24.041117,323.0,NaN,7.056,10.5,1.5,13 / 14,340526,2020-03-19 19:05:58:942
-2.078167,-0.373495,3.581726,0.0,49.834587,24.041117,323.0,NaN,7.056,10.5,1.5,13 / 14,341025,2020-03-19 19:05:59:441
-3.222595,-5.90889,-0.560243,0.0,49.834587,24.041117,323.0,NaN,7.056,10.5,1.5,13 / 14,341525,2020-03-19 19:05:59:941
1.206678,-6.540959,2.207454,0.0,49.834587,24.041117,323.0,NaN,7.056,10.5,1.5,13 / 14,342025,2020-03-19 19:06:00:441
-0.962469,-7.484274,1.532289,0.0,49.834587,24.041117,323.0,NaN,7.056,10.5,1.5,13 / 14,342525,2020-03-19 19:06:00:941
-0.565032,-4.965574,2.221819,0.0,49.834587,24.041117,323.0,NaN,7.056,10.5,1.5,0 / 0,343026,2020-03-19 19:06:01:442
-5.679046,-5.947197,0.095768,0.0,49.834587,24.041117,323.0,NaN,7.056,10.5,1.5,0 / 0,343526,2020-03-19 19:06:01:942
-8.418014,-12.23437,-1.70946,0.0,49.834587,24.041117,323.0,NaN,7.056,10.5,1.5,4 / 4,344026,2020-03-19 19:06:02:442
-1.11091,0.871489,-8.829816,0.0,49.834587,24.041117,323.0,NaN,7.056,10.5,1.5,4 / 4,344526,2020-03-19 19:06:02:942
-1.015141,-14.891934,-3.873818,0.0,49.834587,24.041117,323.0,NaN,7.056,10.5,1.5,13 / 13,345026,2020-03-19 19:06:03:442
-8.820239,-15.380352,-14.580688,0.0,49.834587,24.041117,323.0,NaN,7.056,10.5,1.5,13 / 13,345525,2020-03-19 19:06:03:941
-3.950433,-10.065224,-2.557007,0.0,49.83549,24.040709,325.0,NaN,4.644,36.5,0.0,10 / 16,346025,2020-03-19 19:06:04:441
-1.422156,-1.695095,3.050213,0.0,49.83549,24.040709,325.0,NaN,4.644,36.5,0.0,10 / 16,346526,2020-03-19 19:06:04:942
-6.924031,-5.114014,-2.078167,0.0,49.83549,24.040709,325.0,NaN,4.644,36.5,0.0,10 / 16,347025,2020-03-19 19:06:05:441
-1.436521,-2.087744,3.77805,0.0,49.83549,24.040709,325.0,NaN,4.644,36.5,0.0,10 / 16,347525,2020-03-19 19:06:05:941
-4.788403,-5.674258,-0.560243,0.0,49.83549,24.040709,325.0,NaN,4.644,36.5,0.0,10 / 16,348025,2020-03-19 19:06:06:441
2.437297,-9.639056,0.493206,0.0,49.83549,24.040709,325.0,NaN,4.644,36.5,0.0,10 / 16,348525,2020-03-19 19:06:06:941
-0.47884,-18.890251,-3.524265,0.0,49.83549,24.040709,325.0,NaN,4.644,36.5,0.0,10 / 16,349025,2020-03-19 19:06:07:441
-9.437943,-15.710752,6.157887,0.0,49.83549,24.040709,325.0,NaN,4.644,36.5,0.0,10 / 16,349525,2020-03-19 19:06:07:941
-1.403002,-17.252617,0.909797,0.0,49.83549,24.040709,325.0,NaN,4.644,36.5,0.0,10 / 16,350026,2020-03-19 19:06:08:442
-4.31914,-12.239159,-2.571372,0.0,49.83549,24.040709,325.0,NaN,4.644,36.5,0.0,10 / 16,350526,2020-03-19 19:06:08:942
-5.444414,-7.034164,-4.951209,0.0,49.83549,24.040709,325.0,NaN,4.644,36.5,0.0,10 / 16,351026,2020-03-19 19:06:09:442
-1.225831,-10.424355,0.311246,0.0,49.83549,24.040709,325.0,NaN,4.644,36.5,0.0,10 / 16,351526,2020-03-19 19:06:09:942
-2.964022,-1.690306,0.723049,0.0,49.83549,24.040709,325.0,NaN,4.644,36.5,0.0,10 / 16,352026,2020-03-19 19:06:10:442
-4.19943,-8.796297,-1.733402,0.0,49.83549,24.040709,325.0,NaN,4.644,36.5,0.0,10 / 16,352526,2020-03-19 19:06:10:942
-7.201759,-13.718776,-1.034295,0.0,49.83549,24.040709,325.0,NaN,4.644,36.5,0.0,10 / 16,353026,2020-03-19 19:06:11:442
3.280056,-3.112462,11.832145,0.0,49.83549,24.040709,325.0,NaN,4.644,36.5,0.0,10 / 16,353526,2020-03-19 19:06:11:942
-4.91769,-11.645397,-2.073379,0.0,49.83549,24.040709,325.0,NaN,4.644,36.5,0.0,10 / 16,354026,2020-03-19 19:06:12:442
-3.667917,-3.098097,-0.076614,0.0,49.83549,24.040709,325.0,NaN,4.644,36.5,0.0,10 / 16,354526,2020-03-19 19:06:12:942
-0.536301,-9.720459,-1.326388,0.0,49.83549,24.040709,325.0,NaN,4.644,36.5,0.0,10 / 16,355026,2020-03-19 19:06:13:442
-4.223372,-11.827356,-2.96881,0.0,49.83549,24.040709,325.0,NaN,4.644,36.5,0.0,10 / 16,355526,2020-03-19 19:06:13:942
-0.387861,2.13084,10.041282,0.0,49.83549,24.040709,325.0,NaN,4.644,36.5,0.0,10 / 16,356026,2020-03-19 19:06:14:442
-10.189722,-12.933477,0.339977,0.0,49.83549,24.040709,325.0,NaN,4.644,36.5,0.0,10 / 16,356526,2020-03-19 19:06:14:942
0.114922,-6.574477,-2.513912,0.0,49.83549,24.040709,325.0,NaN,4.644,36.5,0.0,10 / 16,357025,2020-03-19 19:06:15:441
-0.483629,-10.041282,-1.383848,0.0,49.83549,24.040709,325.0,NaN,4.644,36.5,0.0,10 / 16,357525,2020-03-19 19:06:15:941
-0.857124,-7.843405,0.162806,0.0,49.83549,24.040709,325.0,NaN,4.644,36.5,0.0,10 / 16,358026,2020-03-19 19:06:16:442
2.025495,4.951209,4.841076,0.0,49.83549,24.040709,325.0,NaN,4.644,36.5,0.0,10 / 16,358526,2020-03-19 19:06:16:942
-3.136404,-10.840945,-0.603339,0.0,49.83549,24.040709,325.0,NaN,4.644,36.5,0.0,10 / 16,359026,2020-03-19 19:06:17:442
-3.050213,-6.315904,-4.43885,0.0,49.83549,24.040709,325.0,NaN,4.644,36.5,0.0,10 / 16,359526,2020-03-19 19:06:17:942
-1.115698,-10.381259,-1.067814,0.0,49.83549,24.040709,325.0,NaN,4.644,36.5,0.0,10 / 16,360026,2020-03-19 19:06:18:442
-2.102109,-6.38773,-0.56982,0.0,49.83549,24.040709,325.0,NaN,4.644,36.5,0.0,10 / 16,360526,2020-03-19 19:06:18:942
-3.323152,-18.942924,-6.655881,0.0,49.83549,24.040709,325.0,NaN,4.644,36.5,0.0,10 / 16,361026,2020-03-19 19:06:19:442
-2.695871,-12.124237,-1.11091,0.0,49.83549,24.040709,325.0,NaN,4.644,36.5,0.0,10 / 16,361526,2020-03-19 19:06:19:942
-4.845864,-7.311892,-11.013328,0.0,49.83549,24.040709,325.0,NaN,4.644,36.5,0.0,10 / 16,362025,2020-03-19 19:06:20:441
-1.503559,-8.030152,-1.704672,0.0,49.83549,24.040709,325.0,NaN,4.644,36.5,0.0,10 / 16,362525,2020-03-19 19:06:20:941
-4.635174,-11.932701,-2.284068,0.0,49.83549,24.040709,325.0,NaN,4.644,36.5,0.0,10 / 16,363025,2020-03-19 19:06:21:441
-13.22557,-26.307487,-17.353174,0.0,49.83549,24.040709,325.0,NaN,4.644,36.5,0.0,10 / 16,363525,2020-03-19 19:06:21:941
-1.58975,-11.013328,-0.296881,0.0,49.83549,24.040709,325.0,NaN,4.644,36.5,0.0,10 / 16,364025,2020-03-19 19:06:22:441
4.486734,-0.732626,-6.885724,0.0,49.83549,24.040709,325.0,NaN,4.644,36.5,0.0,10 / 16,364526,2020-03-19 19:06:22:942
0.177171,-11.190498,-1.80044,0.0,49.83549,24.040709,325.0,NaN,4.644,36.5,0.0,10 / 16,365026,2020-03-19 19:06:23:442
-2.633622,-1.838747,1.891419,0.0,49.83549,24.040709,325.0,NaN,4.644,36.5,0.0,10 / 16,365526,2020-03-19 19:06:23:942
-3.739743,-6.83784,0.90022,0.0,49.83549,24.040709,325.0,NaN,4.644,36.5,0.0,10 / 16,366026,2020-03-19 19:06:24:442
-3.677494,-8.614338,-1.608903,0.0,49.83549,24.040709,325.0,NaN,4.644,36.5,0.0,10 / 16,366526,2020-03-19 19:06:24:942
-1.843535,-14.216769,2.389413,0.0,49.83549,24.040709,325.0,NaN,4.644,36.5,0.0,10 / 16,367026,2020-03-19 19:06:25:442
-15.179238,-13.819332,2.925715,0.0,49.83549,24.040709,325.0,NaN,4.644,36.5,0.0,10 / 16,367526,2020-03-19 19:06:25:942
-13.326127,-19.958067,-7.747637,0.0,49.83549,24.040709,325.0,NaN,4.644,36.5,0.0,10 / 16,368026,2020-03-19 19:06:26:442
-14.025233,-14.968549,1.49877,0.0,49.83549,24.040709,325.0,NaN,4.644,36.5,0.0,10 / 16,368526,2020-03-19 19:06:26:942
2.269703,-14.700398,37.737408,0.0,49.83549,24.040709,325.0,NaN,4.644,36.5,0.0,10 / 16,369026,2020-03-19 19:06:27:442
-2.470816,-13.153744,-3.055001,0.0,49.83549,24.040709,325.0,NaN,4.644,36.5,0.0,10 / 16,369526,2020-03-19 19:06:27:942
-9.5385,-10.524911,-13.895947,0.0,49.83549,24.040709,325.0,NaN,4.644,36.5,0.0,10 / 16,370026,2020-03-19 19:06:28:442
-1.067814,-7.350199,0.325611,0.0,49.83549,24.040709,325.0,NaN,4.644,36.5,0.0,10 / 16,370525,2020-03-19 19:06:28:941
-1.690306,-3.399766,2.705448,0.0,49.83549,24.040709,325.0,NaN,4.644,36.5,0.0,10 / 16,371026,2020-03-19 19:06:29:442
-7.019799,-5.66947,0.057461,0.0,49.83549,24.040709,325.0,NaN,4.644,36.5,0.0,10 / 16,371526,2020-03-19 19:06:29:942
-10.237606,-13.086706,-1.000776,0.0,49.83549,24.040709,325.0,NaN,4.644,36.5,0.0,10 / 16,372026,2020-03-19 19:06:30:442
-5.621585,-12.339716,35.30969,0.0,49.83549,24.040709,325.0,NaN,4.644,36.5,0.0,10 / 16,372526,2020-03-19 19:06:30:942
-11.674128,-12.943054,5.712566,0.0,49.83549,24.040709,325.0,NaN,4.644,36.5,0.0,10 / 16,373026,2020-03-19 19:06:31:442
3.414132,-21.930887,0.699107,0.0,49.83549,24.040709,325.0,NaN,4.644,36.5,0.0,10 / 16,373526,2020-03-19 19:06:31:942
-9.433155,-11.63582,-0.919373,0.0,49.83549,24.040709,325.0,NaN,4.644,36.5,0.0,10 / 16,374026,2020-03-19 19:06:32:442
-9.528923,6.727707,-13.781025,0.0,49.83549,24.040709,325.0,NaN,4.644,36.5,0.0,10 / 16,374526,2020-03-19 19:06:32:942
-3.303998,-12.703634,-4.189853,0.0,49.83549,24.040709,325.0,NaN,4.644,36.5,0.0,10 / 16,375026,2020-03-19 19:06:33:442
-11.09473,-15.543158,-12.033257,0.0,49.83549,24.040709,325.0,NaN,4.644,36.5,0.0,10 / 16,375526,2020-03-19 19:06:33:942
-2.288857,-10.13705,-3.792415,0.0,49.83549,24.040709,325.0,NaN,4.644,36.5,0.0,10 / 16,376026,2020-03-19 19:06:34:442
-2.858677,-0.732626,3.20823,0.0,49.83549,24.040709,325.0,NaN,4.644,36.5,0.0,10 / 16,376526,2020-03-19 19:06:34:942
-5.583278,-5.631162,-1.005565,0.0,49.83549,24.040709,325.0,NaN,4.644,36.5,0.0,10 / 16,377026,2020-03-19 19:06:35:442
-1.814805,-10.764331,-2.030283,0.0,49.83549,24.040709,325.0,NaN,4.644,36.5,0.0,10 / 16,377526,2020-03-19 19:06:35:942
-3.055001,-6.991069,-1.594538,0.0,49.83549,24.040709,325.0,NaN,4.644,36.5,0.0,10 / 16,378026,2020-03-19 19:06:36:442
2.044648,-9.730036,-0.129287,0.0,49.83549,24.040709,325.0,NaN,4.644,36.5,0.0,10 / 16,378526,2020-03-19 19:06:36:942
-8.475474,-23.769634,-6.938396,0.0,49.83549,24.040709,325.0,NaN,4.644,36.5,0.0,10 / 16,379026,2020-03-19 19:06:37:442
-4.979939,-14.45619,2.207454,0.0,49.83549,24.040709,325.0,NaN,4.644,36.5,0.0,10 / 16,379526,2020-03-19 19:06:37:942
-20.748152,-22.826319,-14.556746,0.0,49.83549,24.040709,325.0,NaN,4.644,36.5,0.0,10 / 16,380026,2020-03-19 19:06:38:442
-4.520252,-12.258312,-3.007117,0.0,49.83549,24.040709,325.0,NaN,4.644,36.5,0.0,10 / 16,380526,2020-03-19 19:06:38:942
-5.865794,-11.506534,-9.821015,0.0,49.83549,24.040709,325.0,NaN,4.644,36.5,0.0,10 / 16,381026,2020-03-19 19:06:39:442
-4.951209,-7.762002,-2.686294,0.0,49.83549,24.040709,325.0,NaN,4.644,36.5,0.0,10 / 16,381526,2020-03-19 19:06:39:942
-2.264915,-1.742979,3.916914,0.0,49.83549,24.040709,325.0,NaN,4.644,36.5,0.0,10 / 16,382026,2020-03-19 19:06:40:442
-2.628833,-9.945514,-2.762909,0.0,49.83549,24.040709,325.0,NaN,4.644,36.5,0.0,10 / 16,382526,2020-03-19 19:06:40:942
-2.006341,-1.264138,4.055778,0.0,49.83549,24.040709,325.0,NaN,4.644,36.5,0.0,10 / 16,383026,2020-03-19 19:06:41:442
-3.160346,-6.378153,0.474052,0.0,49.83549,24.040709,325.0,NaN,4.644,36.5,0.0,10 / 16,383526,2020-03-19 19:06:41:942
-1.307234,-9.835381,-1.345541,0.0,49.83549,24.040709,325.0,NaN,4.644,36.5,0.0,10 / 16,384026,2020-03-19 19:06:42:442
-5.075707,-17.894264,-4.036624,0.0,49.83549,24.040709,325.0,NaN,4.644,36.5,0.0,10 / 16,384526,2020-03-19 19:06:42:942
-8.633492,-14.073117,6.095638,0.0,49.83549,24.040709,325.0,NaN,4.644,36.5,0.0,10 / 16,385026,2020-03-19 19:06:43:442
8.542512,14.441825,20.130447,0.0,49.83549,24.040709,325.0,NaN,4.644,36.5,0.0,10 / 16,385525,2020-03-19 19:06:43:941
-2.394202,-15.399506,-2.882619,0.0,49.83549,24.040709,325.0,NaN,4.644,36.5,0.0,10 / 16,386025,2020-03-19 19:06:44:441
-15.08347,-18.617311,-18.713081,0.0,49.83549,24.040709,325.0,NaN,4.644,36.5,0.0,10 / 16,386525,2020-03-19 19:06:44:941
-0.967257,-12.172121,-3.39019,0.0,49.83549,24.040709,325.0,NaN,4.644,36.5,0.0,10 / 16,387025,2020-03-19 19:06:45:441
-11.693281,-15.471332,-13.172897,0.0,49.83549,24.040709,325.0,NaN,4.644,36.5,0.0,10 / 16,387525,2020-03-19 19:06:45:941
-3.026271,-7.814674,-2.284068,0.0,49.83549,24.040709,325.0,NaN,4.644,36.5,0.0,10 / 16,388026,2020-03-19 19:06:46:442
-1.321599,-1.833958,3.064578,0.0,49.83549,24.040709,325.0,NaN,4.644,36.5,0.0,10 / 16,388525,2020-03-19 19:06:46:941
-5.463568,-3.543418,-0.646434,0.0,49.83549,24.040709,325.0,NaN,4.644,36.5,0.0,10 / 16,389026,2020-03-19 19:06:47:442
-2.748543,-10.242394,-1.35033,0.0,49.83549,24.040709,325.0,NaN,4.644,36.5,0.0,10 / 16,389526,2020-03-19 19:06:47:942
-6.311115,-20.254946,-4.759673,0.0,49.83549,24.040709,325.0,NaN,4.644,36.5,0.0,10 / 16,390026,2020-03-19 19:06:48:442
-0.876278,-17.401058,-2.691083,0.0,49.83549,24.040709,325.0,NaN,4.644,36.5,0.0,10 / 16,390526,2020-03-19 19:06:48:942
-7.757213,-22.94603,-7.469909,0.0,49.83549,24.040709,325.0,NaN,4.644,36.5,0.0,10 / 16,391026,2020-03-19 19:06:49:442
-3.615245,-14.982914,-0.943315,0.0,49.83549,24.040709,325.0,NaN,4.644,36.5,0.0,10 / 16,391526,2020-03-19 19:06:49:942
-1.905785,-7.680599,-5.195418,0.0,49.83549,24.040709,325.0,NaN,4.644,36.5,0.0,10 / 16,392026,2020-03-19 19:06:50:442
-0.47884,-11.492168,-3.586514,0.0,49.83549,24.040709,325.0,NaN,4.644,36.5,0.0,10 / 16,392526,2020-03-19 19:06:50:942
-4.074931,-1.254562,3.476381,0.0,49.83549,24.040709,325.0,NaN,4.644,36.5,0.0,10 / 16,393026,2020-03-19 19:06:51:442
-1.623269,-7.364564,-0.3304,0.0,49.83549,24.040709,325.0,NaN,4.644,36.5,0.0,10 / 16,393526,2020-03-19 19:06:51:942
-1.853112,-7.010222,1.944092,0.0,49.83549,24.040709,325.0,NaN,4.644,36.5,0.0,10 / 16,394026,2020-03-19 19:06:52:442
-1.944092,-17.21431,-1.11091,0.0,49.83549,24.040709,325.0,NaN,4.644,36.5,0.0,10 / 16,394526,2020-03-19 19:06:52:942
-0.632069,-4.309563,1.833959,0.0,49.83549,24.040709,325.0,NaN,4.644,36.5,0.0,10 / 16,395026,2020-03-19 19:06:53:442
-4.491522,-5.875371,0.488417,0.0,49.83549,24.040709,325.0,NaN,4.644,36.5,0.0,10 / 16,395525,2020-03-19 19:06:53:941
-8.015787,-12.382812,-0.143652,0.0,49.83549,24.040709,325.0,NaN,4.644,36.5,0.0,10 / 16,396026,2020-03-19 19:06:54:442
2.140417,2.336741,1.991976,0.0,49.83549,24.040709,325.0,NaN,4.644,36.5,0.0,10 / 16,396526,2020-03-19 19:06:54:942
-2.916138,-12.469003,-4.055777,0.0,49.83549,24.040709,325.0,NaN,4.644,36.5,0.0,10 / 16,397026,2020-03-19 19:06:55:442
-9.346964,-9.035717,-2.394202,0.0,49.83549,24.040709,325.0,NaN,4.644,36.5,0.0,10 / 16,397526,2020-03-19 19:06:55:942
2.13084,-12.109872,-3.466804,0.0,49.83549,24.040709,325.0,NaN,4.644,36.5,0.0,10 / 16,398026,2020-03-19 19:06:56:442
-3.251326,0.076614,3.849877,0.0,49.83549,24.040709,325.0,NaN,4.644,36.5,0.0,10 / 16,398526,2020-03-19 19:06:56:942
-1.115698,-12.263102,-1.881842,0.0,49.83549,24.040709,325.0,NaN,4.644,36.5,0.0,10 / 16,399025,2020-03-19 19:06:57:441
-17.152061,-16.721106,-20.652384,0.0,49.83549,24.040709,325.0,NaN,4.644,36.5,0.0,10 / 16,399525,2020-03-19 19:06:57:941
-3.481169,-7.943961,-3.031059,0.0,49.83549,24.040709,325.0,NaN,4.644,36.5,0.0,10 / 16,400025,2020-03-19 19:06:58:441
-0.995988,-1.326388,2.959233,0.0,49.83549,24.040709,325.0,NaN,4.644,36.5,0.0,10 / 16,400526,2020-03-19 19:06:58:942
-1.647211,-6.952761,-0.732626,0.0,49.83549,24.040709,325.0,NaN,4.644,36.5,0.0,10 / 16,401026,2020-03-19 19:06:59:442
-1.25935,-8.12592,0.095768,0.0,49.83549,24.040709,325.0,NaN,4.644,36.5,0.0,10 / 16,401526,2020-03-19 19:06:59:942
0.445322,-7.924807,1.752556,0.0,49.83549,24.040709,325.0,NaN,4.644,36.5,0.0,10 / 16,402026,2020-03-19 19:07:00:442
-8.101978,-12.152967,-0.526724,0.0,49.83549,24.040709,325.0,NaN,4.644,36.5,0.0,10 / 16,402526,2020-03-19 19:07:00:942
4.869807,-7.402871,17.913418,0.0,49.83549,24.040709,325.0,NaN,4.644,36.5,0.0,0 / 0,403025,2020-03-19 19:07:01:441
-3.193865,-10.67814,-1.891419,0.0,49.83549,24.040709,325.0,NaN,4.644,36.5,0.0,0 / 1,403525,2020-03-19 19:07:01:941
-8.614338,-26.197355,-5.401319,0.0,49.83549,24.040709,325.0,NaN,4.644,36.5,0.0,4 / 4,404025,2020-03-19 19:07:02:441
-9.581595,-14.542381,6.833052,0.0,49.83549,24.040709,325.0,NaN,4.644,36.5,0.0,4 / 4,404525,2020-03-19 19:07:02:941
-20.676327,-24.808718,-21.265299,0.0,49.83549,24.040709,325.0,NaN,4.644,36.5,0.0,10 / 15,405026,2020-03-19 19:07:03:442
-0.497994,-12.86644,-1.810016,0.0,49.83549,24.040709,325.0,NaN,4.644,36.5,0.0,10 / 15,405526,2020-03-19 19:07:03:942
-15.251065,-14.135366,-17.06108,0.0,49.836033,24.040955,339.0,NaN,5.22,31.0,302.9,10 / 18,406026,2020-03-19 19:07:04:442
-5.190629,-9.246407,-3.490746,0.0,49.836033,24.040955,339.0,NaN,5.22,31.0,302.9,10 / 18,406526,2020-03-19 19:07:04:942
-1.130063,-1.719037,3.433285,0.0,49.836033,24.040955,339.0,NaN,5.22,31.0,302.9,10 / 18,407026,2020-03-19 19:07:05:442
0.086191,-11.161768,-1.393425,0.0,49.836033,24.040955,339.0,NaN,5.22,31.0,302.9,10 / 18,407525,2020-03-19 19:07:05:941
-1.412579,1.249773,5.224149,0.0,49.836033,24.040955,339.0,NaN,5.22,31.0,302.9,10 / 18,408025,2020-03-19 19:07:06:441
-3.303998,-5.904101,1.264139,0.0,49.836033,24.040955,339.0,NaN,5.22,31.0,302.9,10 / 18,408525,2020-03-19 19:07:06:941
-1.532289,-10.103531,-2.351106,0.0,49.836033,24.040955,339.0,NaN,5.22,31.0,302.9,10 / 18,409025,2020-03-19 19:07:07:441
-9.107543,-26.479872,-7.958326,0.0,49.836033,24.040955,339.0,NaN,5.22,31.0,302.9,10 / 18,409526,2020-03-19 19:07:07:942
-11.046846,-13.594277,4.563349,0.0,49.836033,24.040955,339.0,NaN,5.22,31.0,302.9,10 / 18,410026,2020-03-19 19:07:08:442
-9.998186,-15.322891,-13.986926,0.0,49.836033,24.040955,339.0,NaN,5.22,31.0,302.9,10 / 18,410526,2020-03-19 19:07:08:942
-0.957681,-12.804191,0.890643,0.0,49.836033,24.040955,339.0,NaN,5.22,31.0,302.9,10 / 18,411026,2020-03-19 19:07:09:442
-2.173935,-6.004657,-7.61835,0.0,49.836033,24.040955,339.0,NaN,5.22,31.0,302.9,10 / 18,411525,2020-03-19 19:07:09:941
-0.21069,-14.853627,-3.643975,0.0,49.836033,24.040955,339.0,NaN,5.22,31.0,302.9,10 / 18,412026,2020-03-19 19:07:10:442
-13.737929,-13.235147,-12.253524,0.0,49.836033,24.040955,339.0,NaN,5.22,31.0,302.9,10 / 18,412526,2020-03-19 19:07:10:942
-5.185841,-7.445967,-4.486734,0.0,49.836033,24.040955,339.0,NaN,5.22,31.0,302.9,10 / 18,413026,2020-03-19 19:07:11:442
-1.182736,0.301669,3.05979,0.0,49.836033,24.040955,339.0,NaN,5.22,31.0,302.9,10 / 18,413526,2020-03-19 19:07:11:942
-4.007893,-6.392518,-2.015918,0.0,49.836033,24.040955,339.0,NaN,5.22,31.0,302.9,10 / 18,414026,2020-03-19 19:07:12:442
1.838747,-9.916783,0.866701,0.0,49.836033,24.040955,339.0,NaN,5.22,31.0,302.9,10 / 18,414526,2020-03-19 19:07:12:942
0.80924,-12.310986,1.742979,0.0,49.836033,24.040955,339.0,NaN,5.22,31.0,302.9,10 / 18,415026,2020-03-19 19:07:13:442
-13.536817,-15.878345,4.462792,0.0,49.836033,24.040955,339.0,NaN,5.22,31.0,302.9,10 / 18,415526,2020-03-19 19:07:13:942
9.701305,-3.050213,33.92105,0.0,49.836033,24.040955,339.0,NaN,5.22,31.0,302.9,10 / 18,416025,2020-03-19 19:07:14:441
-5.114014,-12.966996,-6.29675,0.0,49.836033,24.040955,339.0,NaN,5.22,31.0,302.9,10 / 18,416525,2020-03-19 19:07:14:941
-9.868899,-17.027563,-18.727446,0.0,49.836033,24.040955,339.0,NaN,5.22,31.0,302.9,10 / 18,417025,2020-03-19 19:07:15:441
-11.051635,-9.974244,-2.011129,0.0,49.836033,24.040955,339.0,NaN,5.22,31.0,302.9,10 / 18,417526,2020-03-19 19:07:15:942
-3.040636,-3.409343,-5.324704,0.0,49.836033,24.040955,339.0,NaN,5.22,31.0,302.9,10 / 18,418026,2020-03-19 19:07:16:442
-1.082179,-13.967772,-1.915361,0.0,49.836033,24.040955,339.0,NaN,5.22,31.0,302.9,10 / 18,418526,2020-03-19 19:07:16:942
-3.715801,-1.891419,2.633622,0.0,49.836033,24.040955,339.0,NaN,5.22,31.0,302.9,10 / 18,419026,2020-03-19 19:07:17:442
-2.389413,-5.956774,1.49877,0.0,49.836033,24.040955,339.0,NaN,5.22,31.0,302.9,10 / 18,419526,2020-03-19 19:07:17:942
0.234632,-1.685518,4.544195,0.0,49.836033,24.040955,339.0,NaN,5.22,31.0,302.9,10 / 18,420026,2020-03-19 19:07:18:442
-3.797204,-7.757213,1.833959,0.0,49.836033,24.040955,339.0,NaN,5.22,31.0,302.9,10 / 18,420526,2020-03-19 19:07:18:942
-11.48738,-12.923901,-0.177171,0.0,49.836033,24.040955,339.0,NaN,5.22,31.0,302.9,10 / 18,421025,2020-03-19 19:07:19:441
-6.62715,-5.463568,-1.35033,0.0,49.836033,24.040955,339.0,NaN,5.22,31.0,302.9,10 / 18,421526,2020-03-19 19:07:19:942
2.542642,-11.300632,-1.561019,0.0,49.836033,24.040955,339.0,NaN,5.22,31.0,302.9,10 / 18,422026,2020-03-19 19:07:20:442
-3.112462,-17.587805,-3.773262,0.0,49.836033,24.040955,339.0,NaN,5.22,31.0,302.9,10 / 18,422526,2020-03-19 19:07:20:942
-12.445061,-15.073894,4.146757,0.0,49.836033,24.040955,339.0,NaN,5.22,31.0,302.9,10 / 18,423026,2020-03-19 19:07:21:442
-18.555063,-19.756952,-15.753847,0.0,49.836033,24.040955,339.0,NaN,5.22,31.0,302.9,10 / 18,423526,2020-03-19 19:07:21:942
-1.307234,-12.291832,-2.873042,0.0,49.836033,24.040955,339.0,NaN,5.22,31.0,302.9,10 / 18,424026,2020-03-19 19:07:22:442
-2.882619,-6.253655,-12.090718,0.0,49.836033,24.040955,339.0,NaN,5.22,31.0,302.9,10 / 18,424526,2020-03-19 19:07:22:942
-2.715025,-5.880159,1.058237,0.0,49.836033,24.040955,339.0,NaN,5.22,31.0,302.9,10 / 18,425026,2020-03-19 19:07:23:442
-1.216254,-1.005565,3.835511,0.0,49.836033,24.040955,339.0,NaN,5.22,31.0,302.9,10 / 18,425525,2020-03-19 19:07:23:941
0.004788,-11.257536,-2.102109,0.0,49.836033,24.040955,339.0,NaN,5.22,31.0,302.9,10 / 18,426025,2020-03-19 19:07:24:441
-2.284068,-0.397437,3.596091,0.0,49.836033,24.040955,339.0,NaN,5.22,31.0,302.9,10 / 18,426526,2020-03-19 19:07:24:942
-1.101333,-7.642292,1.977611,0.0,49.836033,24.040955,339.0,NaN,5.22,31.0,302.9,10 / 18,427026,2020-03-19 19:07:25:442
1.273715,-7.10599,2.145205,0.0,49.836033,24.040955,339.0,NaN,5.22,31.0,302.9,10 / 18,427526,2020-03-19 19:07:25:942
-5.918466,-5.559336,0.440533,0.0,49.836033,24.040955,339.0,NaN,5.22,31.0,302.9,10 / 18,428026,2020-03-19 19:07:26:442
-10.462662,-12.550406,-0.550666,0.0,49.836033,24.040955,339.0,NaN,5.22,31.0,302.9,10 / 18,428526,2020-03-19 19:07:26:942
-2.619257,-15.021221,18.784906,0.0,49.836033,24.040955,339.0,NaN,5.22,31.0,302.9,10 / 18,429026,2020-03-19 19:07:27:442
-5.228936,-13.115437,2.193089,0.0,49.836033,24.040955,339.0,NaN,5.22,31.0,302.9,10 / 18,429526,2020-03-19 19:07:27:942
-4.261679,-9.916783,-8.777143,0.0,49.836033,24.040955,339.0,NaN,5.22,31.0,302.9,10 / 18,430025,2020-03-19 19:07:28:441
-2.691083,-10.668563,-2.030283,0.0,49.836033,24.040955,339.0,NaN,5.22,31.0,302.9,10 / 18,430526,2020-03-19 19:07:28:942
-3.519476,-3.021482,-0.742202,0.0,49.836033,24.040955,339.0,NaN,5.22,31.0,302.9,10 / 18,431026,2020-03-19 19:07:29:442
-0.890643,-7.613561,1.355118,0.0,49.836033,24.040955,339.0,NaN,5.22,31.0,302.9,10 / 18,431525,2020-03-19 19:07:29:941
-5.913678,-9.193734,-9.021352,0.0,49.836033,24.040955,339.0,NaN,5.22,31.0,302.9,10 / 18,432025,2020-03-19 19:07:30:441
-4.261679,-8.106766,-4.223372,0.0,49.836033,24.040955,339.0,NaN,5.22,31.0,302.9,10 / 18,432526,2020-03-19 19:07:30:942
-1.685518,-0.924162,4.467581,0.0,49.836033,24.040955,339.0,NaN,5.22,31.0,302.9,10 / 18,433026,2020-03-19 19:07:31:442
-5.760449,-6.114791,-1.532289,0.0,49.836033,24.040955,339.0,NaN,5.22,31.0,302.9,10 / 18,433526,2020-03-19 19:07:31:942
-0.761356,-10.577583,-1.824382,0.0,49.836033,24.040955,339.0,NaN,5.22,31.0,302.9,10 / 18,434026,2020-03-19 19:07:32:442
-9.710882,-24.191013,-7.565677,0.0,49.836033,24.040955,339.0,NaN,5.22,31.0,302.9,10 / 18,434526,2020-03-19 19:07:32:942
-0.560243,-15.049952,-4.371812,0.0,49.836033,24.040955,339.0,NaN,5.22,31.0,302.9,10 / 18,435026,2020-03-19 19:07:33:442
-4.702212,-4.395754,-2.149993,0.0,49.836033,24.040955,339.0,NaN,5.22,31.0,302.9,10 / 18,435525,2020-03-19 19:07:33:941
1.345541,-12.603078,-3.078943,0.0,49.836033,24.040955,339.0,NaN,5.22,31.0,302.9,10 / 18,436026,2020-03-19 19:07:34:442
-7.455544,-4.79798,-7.182605,0.0,49.836033,24.040955,339.0,NaN,5.22,31.0,302.9,10 / 18,436526,2020-03-19 19:07:34:942
0.095768,-12.837709,-2.662352,0.0,49.836033,24.040955,339.0,NaN,5.22,31.0,302.9,10 / 18,437026,2020-03-19 19:07:35:442
-3.600879,-1.053449,1.853112,0.0,49.836033,24.040955,339.0,NaN,5.22,31.0,302.9,10 / 18,437526,2020-03-19 19:07:35:942
-1.556231,-7.220912,1.924938,0.0,49.836033,24.040955,339.0,NaN,5.22,31.0,302.9,10 / 18,438026,2020-03-19 19:07:36:442
-2.001553,-3.811569,3.366248,0.0,49.836033,24.040955,339.0,NaN,5.22,31.0,302.9,10 / 18,438526,2020-03-19 19:07:36:942
-5.78918,-6.220136,0.512359,0.0,49.836033,24.040955,339.0,NaN,5.22,31.0,302.9,10 / 18,439026,2020-03-19 19:07:37:442
-9.816227,-12.449849,-1.077391,0.0,49.836033,24.040955,339.0,NaN,5.22,31.0,302.9,10 / 18,439526,2020-03-19 19:07:37:942
0.229843,6.493075,8.106767,0.0,49.836033,24.040955,339.0,NaN,5.22,31.0,302.9,10 / 18,440026,2020-03-19 19:07:38:442
-3.409343,-12.761095,-2.916138,0.0,49.836033,24.040955,339.0,NaN,5.22,31.0,302.9,10 / 18,440525,2020-03-19 19:07:38:941
-26.81506,-31.048008,-33.89232,0.0,49.836033,24.040955,339.0,NaN,5.22,31.0,302.9,10 / 18,441026,2020-03-19 19:07:39:442
-3.136404,-13.757083,-4.161122,0.0,49.836033,24.040955,339.0,NaN,5.22,31.0,302.9,10 / 18,441526,2020-03-19 19:07:39:942
-17.377115,-18.847157,-23.625982,0.0,49.836033,24.040955,339.0,NaN,5.22,31.0,302.9,10 / 18,442026,2020-03-19 19:07:40:442
-4.525041,-8.628703,-2.336741,0.0,49.836033,24.040955,339.0,NaN,5.22,31.0,302.9,10 / 18,442526,2020-03-19 19:07:40:942
-1.297657,-1.900996,2.863465,0.0,49.836033,24.040955,339.0,NaN,5.22,31.0,302.9,10 / 18,443026,2020-03-19 19:07:41:442
-4.922478,-6.430825,-0.995988,0.0,49.836033,24.040955,339.0,NaN,5.22,31.0,302.9,10 / 18,443526,2020-03-19 19:07:41:942
-3.605668,-11.449073,-1.268927,0.0,49.836033,24.040955,339.0,NaN,5.22,31.0,302.9,10 / 18,444026,2020-03-19 19:07:42:442
-10.907983,-13.996503,3.409343,0.0,49.836033,24.040955,339.0,NaN,5.22,31.0,302.9,10 / 18,444526,2020-03-19 19:07:42:942
-5.39653,-10.500969,-1.326388,0.0,49.836033,24.040955,339.0,NaN,5.22,31.0,302.9,10 / 18,445026,2020-03-19 19:07:43:442
-4.501099,-8.743625,32.54199,0.0,49.836033,24.040955,339.0,NaN,5.22,31.0,302.9,10 / 18,445526,2020-03-19 19:07:43:942
-2.408567,-14.288596,-4.041412,0.0,49.836033,24.040955,339.0,NaN,5.22,31.0,302.9,10 / 18,446025,2020-03-19 19:07:44:441
-5.228936,-9.212888,-5.851429,0.0,49.836033,24.040955,339.0,NaN,5.22,31.0,302.9,10 / 18,446526,2020-03-19 19:07:44:942
2.748544,-14.188039,-2.437297,0.0,49.836033,24.040955,339.0,NaN,5.22,31.0,302.9,10 / 18,447026,2020-03-19 19:07:45:442
-1.206678,-0.402226,3.548207,0.0,49.836033,24.040955,339.0,NaN,5.22,31.0,302.9,10 / 18,447526,2020-03-19 19:07:45:942
0.627281,-8.825027,1.340753,0.0,49.836033,24.040955,339.0,NaN,5.22,31.0,302.9,10 / 18,448025,2020-03-19 19:07:46:441
2.734178,-9.476251,0.895431,0.0,49.836033,24.040955,339.0,NaN,5.22,31.0,302.9,10 / 18,448526,2020-03-19 19:07:46:942
-1.177947,-8.504205,0.579397,0.0,49.836033,24.040955,339.0,NaN,5.22,31.0,302.9,10 / 18,449026,2020-03-19 19:07:47:442
1.80044,-8.025364,1.958457,0.0,49.836033,24.040955,339.0,NaN,5.22,31.0,302.9,10 / 18,449526,2020-03-19 19:07:47:942
-1.307234,-9.509769,-0.847547,0.0,49.836033,24.040955,339.0,NaN,5.22,31.0,302.9,10 / 18,450026,2020-03-19 19:07:48:442
-9.619903,-15.816096,7.637504,0.0,49.836033,24.040955,339.0,NaN,5.22,31.0,302.9,10 / 18,450526,2020-03-19 19:07:48:942
-9.136273,-17.310078,1.091756,0.0,49.836033,24.040955,339.0,NaN,5.22,31.0,302.9,10 / 18,451026,2020-03-19 19:07:49:442
-3.150769,-13.393165,-1.522712,0.0,49.836033,24.040955,339.0,NaN,5.22,31.0,302.9,10 / 18,451525,2020-03-19 19:07:49:941
-3.031059,-5.48751,-8.801085,0.0,49.836033,24.040955,339.0,NaN,5.22,31.0,302.9,10 / 18,452025,2020-03-19 19:07:50:441
-2.777274,-7.369353,1.599327,0.0,49.836033,24.040955,339.0,NaN,5.22,31.0,302.9,10 / 18,452525,2020-03-19 19:07:50:941
-0.895431,-4.31914,2.466028,0.0,49.836033,24.040955,339.0,NaN,5.22,31.0,302.9,10 / 18,453026,2020-03-19 19:07:51:442
-2.063802,-7.603985,2.437297,0.0,49.836033,24.040955,339.0,NaN,5.22,31.0,302.9,10 / 18,453526,2020-03-19 19:07:51:942
-1.13964,-3.351882,2.810793,0.0,49.836033,24.040955,339.0,NaN,5.22,31.0,302.9,10 / 18,454026,2020-03-19 19:07:52:442
-4.91769,-6.483498,0.6608,0.0,49.836033,24.040955,339.0,NaN,5.22,31.0,302.9,10 / 18,454526,2020-03-19 19:07:52:942
-12.033257,-14.379576,-0.397437,0.0,49.836033,24.040955,339.0,NaN,5.22,31.0,302.9,10 / 18,455026,2020-03-19 19:07:53:442
-0.723049,6.320693,12.722788,0.0,49.836033,24.040955,339.0,NaN,5.22,31.0,302.9,10 / 18,455526,2020-03-19 19:07:53:942
-2.657564,-13.570335,-1.867477,0.0,49.836033,24.040955,339.0,NaN,5.22,31.0,302.9,10 / 18,456026,2020-03-19 19:07:54:442
-7.613561,-9.409213,-14.053964,0.0,49.836033,24.040955,339.0,NaN,5.22,31.0,302.9,10 / 18,456525,2020-03-19 19:07:54:941
-2.8491,-7.704541,0.057461,0.0,49.836033,24.040955,339.0,NaN,5.22,31.0,302.9,10 / 18,457025,2020-03-19 19:07:55:441
0.057461,-7.934384,0.68953,0.0,49.836033,24.040955,339.0,NaN,5.22,31.0,302.9,10 / 18,457525,2020-03-19 19:07:55:941
-3.131616,-7.584831,1.493982,0.0,49.836033,24.040955,339.0,NaN,5.22,31.0,302.9,10 / 18,458025,2020-03-19 19:07:56:441
-0.253785,-7.192182,0.038307,0.0,49.836033,24.040955,339.0,NaN,5.22,31.0,302.9,10 / 18,458525,2020-03-19 19:07:56:941
-0.167594,-10.907983,-0.335188,0.0,49.836033,24.040955,339.0,NaN,5.22,31.0,302.9,10 / 18,459025,2020-03-19 19:07:57:441
-11.324574,-12.65575,4.232949,0.0,49.836033,24.040955,339.0,NaN,5.22,31.0,302.9,10 / 18,459525,2020-03-19 19:07:57:941
-9.32781,-19.033903,-7.211335,0.0,49.836033,24.040955,339.0,NaN,5.22,31.0,302.9,10 / 18,460025,2020-03-19 19:07:58:441
-3.596091,-12.421119,-2.671929,0.0,49.836033,24.040955,339.0,NaN,5.22,31.0,302.9,10 / 18,460525,2020-03-19 19:07:58:941
-4.151545,-3.758896,-1.891419,0.0,49.836033,24.040955,339.0,NaN,5.22,31.0,302.9,10 / 18,461025,2020-03-19 19:07:59:441
-4.204218,-8.264784,-0.373495,0.0,49.836033,24.040955,339.0,NaN,5.22,31.0,302.9,10 / 18,461525,2020-03-19 19:07:59:941
-1.173159,-4.821922,1.987187,0.0,49.836033,24.040955,339.0,NaN,5.22,31.0,302.9,10 / 18,462025,2020-03-19 19:08:00:441
-3.203442,-8.15465,1.235408,0.0,49.836033,24.040955,339.0,NaN,5.22,31.0,302.9,10 / 18,462525,2020-03-19 19:08:00:941
-0.162806,-6.828263,0.699107,0.0,49.836033,24.040955,339.0,NaN,5.22,31.0,302.9,0 / 0,463026,2020-03-19 19:08:01:442
-1.757344,-15.442601,-12.373235,0.0,49.836033,24.040955,339.0,NaN,5.22,31.0,302.9,0 / 1,463526,2020-03-19 19:08:01:942
-6.584054,-13.809755,2.782062,0.0,49.836033,24.040955,339.0,NaN,5.22,31.0,302.9,4 / 4,464026,2020-03-19 19:08:02:442
0.177171,-4.663905,-9.600749,0.0,49.836033,24.040955,339.0,NaN,5.22,31.0,302.9,4 / 4,464526,2020-03-19 19:08:02:942
-5.348646,-10.189722,-3.524265,0.0,49.836033,24.040955,339.0,NaN,5.22,31.0,302.9,15 / 15,465026,2020-03-19 19:08:03:442
-3.002329,-2.705448,2.695871,0.0,49.836033,24.040955,339.0,NaN,5.22,31.0,302.9,15 / 15,465525,2020-03-19 19:08:03:941
0.234632,-9.821015,-0.92895,0.0,49.836033,24.040955,339.0,NaN,5.22,31.0,302.9,15 / 15,466026,2020-03-19 19:08:04:442
-4.501099,-11.45865,-2.983175,0.0,49.8365,24.03993,354.0,NaN,2.844,10.0,336.2,18 / 19,466526,2020-03-19 19:08:04:942
-6.794744,-7.321469,-0.162806,0.0,49.8365,24.03993,354.0,NaN,2.844,10.0,336.2,18 / 19,467026,2020-03-19 19:08:05:442
-11.525687,-14.30775,3.198654,0.0,49.8365,24.03993,354.0,NaN,2.844,10.0,336.2,18 / 19,467526,2020-03-19 19:08:05:942
-15.088259,-17.980455,-8.317456,0.0,49.8365,24.03993,354.0,NaN,2.844,10.0,336.2,18 / 19,468025,2020-03-19 19:08:06:441
-3.399766,-11.870452,-0.656011,0.0,49.8365,24.03993,354.0,NaN,2.844,10.0,336.2,18 / 19,468526,2020-03-19 19:08:06:942
-2.873042,-1.47004,2.030283,0.0,49.8365,24.03993,354.0,NaN,2.844,10.0,336.2,18 / 19,469026,2020-03-19 19:08:07:442
-2.303222,-7.642292,-0.196325,0.0,49.8365,24.03993,354.0,NaN,2.844,10.0,336.2,18 / 19,469526,2020-03-19 19:08:07:942
-2.595315,-11.262324,-2.513912,0.0,49.8365,24.03993,354.0,NaN,2.844,10.0,336.2,18 / 19,470025,2020-03-19 19:08:08:441
4.141969,-10.309433,16.089035,0.0,49.8365,24.03993,354.0,NaN,2.844,10.0,336.2,18 / 19,470526,2020-03-19 19:08:08:942
-1.968034,-15.547946,-1.316811,0.0,49.8365,24.03993,354.0,NaN,2.844,10.0,336.2,18 / 19,471026,2020-03-19 19:08:09:442
-5.200206,-3.552995,7.350199,0.0,49.8365,24.03993,354.0,NaN,2.844,10.0,336.2,18 / 19,471526,2020-03-19 19:08:09:942
-3.366248,-13.359646,-1.005565,0.0,49.8365,24.03993,354.0,NaN,2.844,10.0,336.2,18 / 19,472025,2020-03-19 19:08:10:441
-3.122039,-10.429143,-11.511322,0.0,49.8365,24.03993,354.0,NaN,2.844,10.0,336.2,18 / 19,472526,2020-03-19 19:08:10:942
-2.202665,-9.457097,-0.948104,0.0,49.8365,24.03993,354.0,NaN,2.844,10.0,336.2,18 / 19,473026,2020-03-19 19:08:11:442
-0.761356,-6.545747,1.01993,0.0,49.8365,24.03993,354.0,NaN,2.844,10.0,336.2,18 / 19,473526,2020-03-19 19:08:11:942
-3.189077,-6.009446,2.662352,0.0,49.8365,24.03993,354.0,NaN,2.844,10.0,336.2,18 / 19,474026,2020-03-19 19:08:12:442
-9.44752,-11.549629,-3.926491,0.0,49.8365,24.03993,354.0,NaN,2.844,10.0,336.2,18 / 19,474526,2020-03-19 19:08:12:942
-6.83784,-7.824251,17.712305,0.0,49.8365,24.03993,354.0,NaN,2.844,10.0,336.2,18 / 19,475026,2020-03-19 19:08:13:442
-4.386177,-12.291832,-2.298433,0.0,49.8365,24.03993,354.0,NaN,2.844,10.0,336.2,18 / 19,475526,2020-03-19 19:08:13:942
-10.500969,-10.802638,-14.69561,0.0,49.8365,24.03993,354.0,NaN,2.844,10.0,336.2,18 / 19,476026,2020-03-19 19:08:14:442
-1.374272,-12.727576,-2.810793,0.0,49.8365,24.03993,354.0,NaN,2.844,10.0,336.2,18 / 19,476526,2020-03-19 19:08:14:942
-10.232818,-16.021997,-11.678916,0.0,49.8365,24.03993,354.0,NaN,2.844,10.0,336.2,18 / 19,477026,2020-03-19 19:08:15:442
-3.342306,-7.996633,-1.106121,0.0,49.8365,24.03993,354.0,NaN,2.844,10.0,336.2,18 / 19,477525,2020-03-19 19:08:15:941
-0.411803,-4.577713,0.775721,0.0,49.8365,24.03993,354.0,NaN,2.844,10.0,336.2,18 / 19,478026,2020-03-19 19:08:16:442
-3.816357,-6.291962,0.052672,0.0,49.8365,24.03993,354.0,NaN,2.844,10.0,336.2,18 / 19,478526,2020-03-19 19:08:16:942
-6.83784,-11.707646,-1.924938,0.0,49.8365,24.03993,354.0,NaN,2.844,10.0,336.2,18 / 19,479025,2020-03-19 19:08:17:441
-9.519346,6.92882,-26.853367,0.0,49.8365,24.03993,354.0,NaN,2.844,10.0,336.2,18 / 19,479525,2020-03-19 19:08:17:941
-1.623269,-14.288596,-0.469264,0.0,49.8365,24.03993,354.0,NaN,2.844,10.0,336.2,18 / 19,480026,2020-03-19 19:08:18:442
2.197877,3.730166,8.063671,0.0,49.8365,24.03993,354.0,NaN,2.844,10.0,336.2,18 / 19,480526,2020-03-19 19:08:18:942
-1.651999,-12.435484,0.186748,0.0,49.8365,24.03993,354.0,NaN,2.844,10.0,336.2,18 / 19,481025,2020-03-19 19:08:19:441
-3.572149,-4.687847,-1.690306,0.0,49.8365,24.03993,354.0,NaN,2.844,10.0,336.2,18 / 19,481526,2020-03-19 19:08:19:942
-2.154781,-8.959103,-0.507571,0.0,49.8365,24.03993,354.0,NaN,2.844,10.0,336.2,18 / 19,482026,2020-03-19 19:08:20:442
-2.806004,-11.971008,-3.246537,0.0,49.8365,24.03993,354.0,NaN,2.844,10.0,336.2,18 / 19,482526,2020-03-19 19:08:20:942
-2.121263,-12.588713,16.74026,0.0,49.8365,24.03993,354.0,NaN,2.844,10.0,336.2,18 / 19,483026,2020-03-19 19:08:21:442
0.675165,-17.137695,-0.019154,0.0,49.8365,24.03993,354.0,NaN,2.844,10.0,336.2,18 / 19,483526,2020-03-19 19:08:21:942
-5.832275,-8.710106,-7.891289,0.0,49.8365,24.03993,354.0,NaN,2.844,10.0,336.2,18 / 19,484026,2020-03-19 19:08:22:442
-1.867477,-11.544841,-2.829946,0.0,49.8365,24.03993,354.0,NaN,2.844,10.0,336.2,18 / 19,484526,2020-03-19 19:08:22:942
-4.659116,-4.860229,-3.069367,0.0,49.8365,24.03993,354.0,NaN,2.844,10.0,336.2,18 / 19,485025,2020-03-19 19:08:23:441
-1.163582,-10.7356,-5.482722,0.0,49.8365,24.03993,354.0,NaN,2.844,10.0,336.2,18 / 19,485525,2020-03-19 19:08:23:941
-1.154005,-2.063802,0.502782,0.0,49.8365,24.03993,354.0,NaN,2.844,10.0,336.2,18 / 19,486025,2020-03-19 19:08:24:441
-2.063802,-8.729259,1.412579,0.0,49.8365,24.03993,354.0,NaN,2.844,10.0,336.2,18 / 19,486526,2020-03-19 19:08:24:942
-1.403002,-0.593762,4.381389,0.0,49.8365,24.03993,354.0,NaN,2.844,10.0,336.2,18 / 19,487026,2020-03-19 19:08:25:442
-5.238513,-6.971915,-1.632845,0.0,49.8365,24.03993,354.0,NaN,2.844,10.0,336.2,18 / 19,487526,2020-03-19 19:08:25:942
-11.113884,-11.353305,0.555455,0.0,49.8365,24.03993,354.0,NaN,2.844,10.0,336.2,18 / 19,488026,2020-03-19 19:08:26:442
2.667141,1.833959,-2.303222,0.0,49.8365,24.03993,354.0,NaN,2.844,10.0,336.2,18 / 19,488526,2020-03-19 19:08:26:942
0.306458,-13.781025,-3.011906,0.0,49.8365,24.03993,354.0,NaN,2.844,10.0,336.2,18 / 19,489026,2020-03-19 19:08:27:442
-13.417107,-17.48246,-19.416977,0.0,49.8365,24.03993,354.0,NaN,2.844,10.0,336.2,18 / 19,489526,2020-03-19 19:08:27:942
-0.057461,-15.380352,-4.204218,0.0,49.8365,24.03993,354.0,NaN,2.844,10.0,336.2,18 / 19,490026,2020-03-19 19:08:28:442
-9.337387,-16.476896,-12.349293,0.0,49.8365,24.03993,354.0,NaN,2.844,10.0,336.2,18 / 19,490526,2020-03-19 19:08:28:942
-0.248997,-11.066,-2.06859,0.0,49.8365,24.03993,354.0,NaN,2.844,10.0,336.2,18 / 19,491025,2020-03-19 19:08:29:441
-1.383848,-0.464475,3.433285,0.0,49.8365,24.03993,354.0,NaN,2.844,10.0,336.2,18 / 19,491526,2020-03-19 19:08:29:942
-0.852336,-7.240066,-0.914585,0.0,49.8365,24.03993,354.0,NaN,2.844,10.0,336.2,18 / 19,492025,2020-03-19 19:08:30:441
-2.341529,-9.883265,-0.938527,0.0,49.8365,24.03993,354.0,NaN,2.844,10.0,336.2,18 / 19,492526,2020-03-19 19:08:30:942
-3.974375,-21.327547,-6.823475,0.0,49.8365,24.03993,354.0,NaN,2.844,10.0,336.2,18 / 19,493026,2020-03-19 19:08:31:442
-5.674258,-12.98615,-0.550666,0.0,49.8365,24.03993,354.0,NaN,2.844,10.0,336.2,18 / 19,493525,2020-03-19 19:08:31:941
0.545878,-12.081141,-0.177171,0.0,49.8365,24.03993,354.0,NaN,2.844,10.0,336.2,18 / 19,494026,2020-03-19 19:08:32:442
-8.03494,-11.923124,4.88896,0.0,49.8365,24.03993,354.0,NaN,2.844,10.0,336.2,18 / 19,494526,2020-03-19 19:08:32:942
-17.266985,-16.548721,-2.260126,0.0,49.8365,24.03993,354.0,NaN,2.844,10.0,336.2,18 / 19,495025,2020-03-19 19:08:33:441
-2.030283,-13.929465,-1.910573,0.0,49.8365,24.03993,354.0,NaN,2.844,10.0,336.2,18 / 19,495526,2020-03-19 19:08:33:942
-16.668432,-17.525557,-23.659502,0.0,49.8365,24.03993,354.0,NaN,2.844,10.0,336.2,18 / 19,496026,2020-03-19 19:08:34:442
-5.33907,-8.092401,-2.691083,0.0,49.8365,24.03993,354.0,NaN,2.844,10.0,336.2,18 / 19,496526,2020-03-19 19:08:34:942
-1.795651,-2.073379,3.60088,0.0,49.8365,24.03993,354.0,NaN,2.844,10.0,336.2,18 / 19,497026,2020-03-19 19:08:35:442
-6.076483,-6.823475,-0.555455,0.0,49.8365,24.03993,354.0,NaN,2.844,10.0,336.2,18 / 19,497526,2020-03-19 19:08:35:942
-7.388506,-11.688493,-0.531513,0.0,49.8365,24.03993,354.0,NaN,2.844,10.0,336.2,18 / 19,498026,2020-03-19 19:08:36:442
-2.75812,-6.900089,-0.54109,0.0,49.8365,24.03993,354.0,NaN,2.844,10.0,336.2,18 / 19,498526,2020-03-19 19:08:36:942
2.288857,-10.242394,-1.647211,0.0,49.8365,24.03993,354.0,NaN,2.844,10.0,336.2,18 / 19,499026,2020-03-19 19:08:37:442
-3.53863,-15.547946,-3.768473,0.0,49.8365,24.03993,354.0,NaN,2.844,10.0,336.2,18 / 19,499526,2020-03-19 19:08:37:942
-12.861651,-17.879898,2.284068,0.0,49.8365,24.03993,354.0,NaN,2.844,10.0,336.2,18 / 19,500026,2020-03-19 19:08:38:442
6.588843,4.620809,31.76148,0.0,49.8365,24.03993,354.0,NaN,2.844,10.0,336.2,18 / 19,500526,2020-03-19 19:08:38:942
-3.509899,-13.359646,-4.635174,0.0,49.8365,24.03993,354.0,NaN,2.844,10.0,336.2,18 / 19,501026,2020-03-19 19:08:39:442
-8.801085,-1.264138,-0.277727,0.0,49.8365,24.03993,354.0,NaN,2.844,10.0,336.2,18 / 19,501526,2020-03-19 19:08:39:942
-3.098097,-12.047623,-2.322375,0.0,49.8365,24.03993,354.0,NaN,2.844,10.0,336.2,18 / 19,502025,2020-03-19 19:08:40:441
-1.431733,-0.857124,2.60968,0.0,49.8365,24.03993,354.0,NaN,2.844,10.0,336.2,18 / 19,502525,2020-03-19 19:08:40:941
-1.570596,-7.852981,-0.656011,0.0,49.8365,24.03993,354.0,NaN,2.844,10.0,336.2,18 / 19,503025,2020-03-19 19:08:41:441
0.885855,-11.061212,-1.101333,0.0,49.8365,24.03993,354.0,NaN,2.844,10.0,336.2,18 / 19,503526,2020-03-19 19:08:41:942
0.158017,-14.753071,-2.944868,0.0,49.8365,24.03993,354.0,NaN,2.844,10.0,336.2,18 / 19,504026,2020-03-19 19:08:42:442
-13.019669,-15.868769,-2.63841,0.0,49.8365,24.03993,354.0,NaN,2.844,10.0,336.2,18 / 19,504526,2020-03-19 19:08:42:942
-8.322244,-2.839523,-12.018892,0.0,49.8365,24.03993,354.0,NaN,2.844,10.0,336.2,18 / 19,505026,2020-03-19 19:08:43:442
-5.995081,-9.749189,-0.857124,0.0,49.8365,24.03993,354.0,NaN,2.844,10.0,336.2,18 / 19,505526,2020-03-19 19:08:43:942
-1.206678,-19.426552,-2.178723,0.0,49.8365,24.03993,354.0,NaN,2.844,10.0,336.2,18 / 19,506025,2020-03-19 19:08:44:441
0.861913,-15.878345,-3.342306,0.0,49.8365,24.03993,354.0,NaN,2.844,10.0,336.2,18 / 19,506525,2020-03-19 19:08:44:941
-4.477157,-3.433285,-0.632069,0.0,49.8365,24.03993,354.0,NaN,2.844,10.0,336.2,18 / 19,507026,2020-03-19 19:08:45:442
-2.245761,-10.759542,-2.413355,0.0,49.8365,24.03993,354.0,NaN,2.844,10.0,336.2,18 / 19,507526,2020-03-19 19:08:45:942
-1.944092,-0.703895,3.596091,0.0,49.8365,24.03993,354.0,NaN,2.844,10.0,336.2,18 / 19,508026,2020-03-19 19:08:46:442
