ACCELEROMETER X (m/s²),ACCELEROMETER Y (m/s²),ACCELEROMETER Z (m/s²),PROXIMITY (m),LOCATION Latitude : ,LOCATION Longitude : ,LOCATION Altitude ( m),LOCATION Altitude-google ( m),LOCATION Speed ( Kmh),LOCATION Accuracy ( m),LOCATION ORIENTATION (°),Satellites in range,Time since start in ms ,YYYY-MO-DD HH-MI-SS_SSS
5.573702,1.580173,5.00867,8.0,49.828747,24.045952,354.0,NaN,4.5,11.0,309.3,16 / 16,91,2020-03-19 18:45:25:394
16.342821,-7.757213,4.141969,8.0,49.828747,24.045952,354.0,NaN,4.5,11.0,309.3,16 / 16,591,2020-03-19 18:45:25:894
15.816096,-5.382165,1.13964,8.0,49.828747,24.045952,354.0,NaN,4.5,11.0,309.3,16 / 16,1091,2020-03-19 18:45:26:394
9.701305,-2.87783,0.483629,8.0,49.828747,24.045952,354.0,NaN,4.5,11.0,309.3,16 / 16,1592,2020-03-19 18:45:26:895
12.631808,-2.834735,0.574608,8.0,49.828747,24.045952,354.0,NaN,4.5,11.0,309.3,16 / 16,2092,2020-03-19 18:45:27:395
8.911219,-6.473921,-0.248997,8.0,49.828747,24.045952,354.0,NaN,4.5,11.0,309.3,16 / 16,2592,2020-03-19 18:45:27:895
14.753071,-3.816357,1.450886,8.0,49.828747,24.045952,354.0,NaN,4.5,11.0,309.3,16 / 16,3092,2020-03-19 18:45:28:395
6.172252,-4.927267,-0.134075,8.0,49.828747,24.045952,354.0,NaN,4.5,11.0,309.3,16 / 16,3591,2020-03-19 18:45:28:894
9.41879,-1.575385,0.943315,8.0,49.828747,24.045952,354.0,NaN,4.5,11.0,309.3,16 / 16,4091,2020-03-19 18:45:29:394
4.912902,-3.682282,0.627281,8.0,49.828747,24.045952,354.0,NaN,4.5,11.0,309.3,16 / 16,4592,2020-03-19 18:45:29:895
8.207323,0.54109,-0.3304,8.0,49.828747,24.045952,354.0,NaN,4.5,11.0,309.3,16 / 16,5092,2020-03-19 18:45:30:395
9.595961,-3.730166,1.757344,8.0,49.828747,24.045952,354.0,NaN,4.5,11.0,309.3,16 / 16,5591,2020-03-19 18:45:30:894
11.334151,-4.094085,-0.191536,8.0,49.828747,24.045952,354.0,NaN,4.5,11.0,309.3,16 / 16,6092,2020-03-19 18:45:31:395
9.059659,-1.795651,-1.053449,8.0,49.828747,24.045952,354.0,NaN,4.5,11.0,309.3,16 / 16,6592,2020-03-19 18:45:31:895
12.823344,-3.615245,-2.60968,8.0,49.828747,24.045952,354.0,NaN,4.5,11.0,309.3,16 / 16,7091,2020-03-19 18:45:32:394
12.334928,-4.821922,0.555455,8.0,49.828747,24.045952,354.0,NaN,4.5,11.0,309.3,16 / 16,7592,2020-03-19 18:45:32:895
8.643068,-6.469133,-0.019154,8.0,49.828747,24.045952,354.0,NaN,4.5,11.0,309.3,16 / 16,8092,2020-03-19 18:45:33:395
15.006856,-3.107674,-0.684742,8.0,49.828747,24.045952,354.0,NaN,4.5,11.0,309.3,16 / 16,8592,2020-03-19 18:45:33:895
8.791509,-6.41646,1.431733,8.0,49.828747,24.045952,354.0,NaN,4.5,11.0,309.3,16 / 16,9091,2020-03-19 18:45:34:394
13.632585,-2.94008,0.852336,8.0,49.828747,24.045952,354.0,NaN,4.5,11.0,309.3,16 / 16,9592,2020-03-19 18:45:34:895
4.687847,-4.299986,-0.258574,8.0,49.828747,24.045952,354.0,NaN,4.5,11.0,309.3,16 / 16,10091,2020-03-19 18:45:35:394
6.761226,-1.968034,-0.162806,8.0,49.828747,24.045952,354.0,NaN,4.5,11.0,309.3,16 / 16,10591,2020-03-19 18:45:35:894
5.295975,-2.624045,0.881066,8.0,49.828747,24.045952,354.0,NaN,4.5,11.0,309.3,16 / 16,11092,2020-03-19 18:45:36:395
10.113108,0.301669,-1.762132,8.0,49.828747,24.045952,354.0,NaN,4.5,11.0,309.3,16 / 16,11591,2020-03-19 18:45:36:894
9.524135,-4.261679,0.47884,8.0,49.828747,24.045952,354.0,NaN,4.5,11.0,309.3,16 / 16,12091,2020-03-19 18:45:37:394
11.803414,-5.319916,1.058237,8.0,49.828747,24.045952,354.0,NaN,4.5,11.0,309.3,16 / 16,12592,2020-03-19 18:45:37:895
6.406884,-3.20823,-0.143652,8.0,49.828747,24.045952,354.0,NaN,4.5,11.0,309.3,16 / 16,13092,2020-03-19 18:45:38:395
10.156203,-6.770802,1.661576,8.0,49.828747,24.045952,354.0,NaN,4.5,11.0,309.3,16 / 16,13591,2020-03-19 18:45:38:894
13.431472,-4.31914,0.651223,8.0,49.828747,24.045952,354.0,NaN,4.5,11.0,309.3,16 / 16,14092,2020-03-19 18:45:39:395
7.651869,-5.985504,-0.550666,8.0,49.828747,24.045952,354.0,NaN,4.5,11.0,309.3,16 / 16,14591,2020-03-19 18:45:39:894
15.480908,-2.509123,0.292093,8.0,49.828747,24.045952,354.0,NaN,4.5,11.0,309.3,16 / 16,15093,2020-03-19 18:45:40:396
4.955998,-5.046977,-0.521936,8.0,49.828747,24.045952,354.0,NaN,4.5,11.0,309.3,16 / 16,15591,2020-03-19 18:45:40:894
7.517793,-1.608903,-0.426168,8.0,49.828747,24.045952,354.0,NaN,4.5,11.0,309.3,16 / 16,16092,2020-03-19 18:45:41:395
4.687847,-3.39019,0.134075,8.0,49.828747,24.045952,354.0,NaN,4.5,11.0,309.3,16 / 16,16591,2020-03-19 18:45:41:894
5.961562,-1.091756,-0.679953,8.0,49.828747,24.045952,354.0,NaN,4.5,11.0,309.3,16 / 16,17091,2020-03-19 18:45:42:394
9.332599,-5.430049,0.42138,8.0,49.828747,24.045952,354.0,NaN,4.5,11.0,309.3,16 / 16,17591,2020-03-19 18:45:42:894
7.714118,-0.411803,-0.426168,8.0,49.828747,24.045952,354.0,NaN,4.5,11.0,309.3,16 / 16,18092,2020-03-19 18:45:43:395
4.984728,-2.930503,0.177171,8.0,49.828747,24.045952,354.0,NaN,4.5,11.0,309.3,16 / 16,18591,2020-03-19 18:45:43:894
11.789049,0.713472,-3.045424,8.0,49.828747,24.045952,354.0,NaN,4.5,11.0,309.3,16 / 16,19091,2020-03-19 18:45:44:394
11.453861,-7.627927,0.6608,8.0,49.828747,24.045952,354.0,NaN,4.5,11.0,309.3,16 / 16,19591,2020-03-19 18:45:44:894
10.912771,-1.80044,2.269703,8.0,49.828747,24.045952,354.0,NaN,4.5,11.0,309.3,16 / 16,20092,2020-03-19 18:45:45:395
13.79539,-4.510676,-0.148441,8.0,49.828747,24.045952,354.0,NaN,4.5,11.0,309.3,16 / 16,20591,2020-03-19 18:45:45:894
5.650316,-6.579266,1.929727,8.0,49.828747,24.045952,354.0,NaN,4.5,11.0,309.3,16 / 16,21091,2020-03-19 18:45:46:394
15.433024,-7.264008,1.106121,8.0,49.828747,24.045952,354.0,NaN,4.5,11.0,309.3,16 / 16,21592,2020-03-19 18:45:46:895
7.23049,-5.889736,1.115698,8.0,49.828747,24.045952,354.0,NaN,4.5,11.0,309.3,16 / 16,22091,2020-03-19 18:45:47:394
10.419566,-2.959233,-0.316035,8.0,49.828747,24.045952,354.0,NaN,4.5,11.0,309.3,16 / 16,22591,2020-03-19 18:45:47:894
4.52983,-3.394978,-0.35913,8.0,49.828747,24.045952,354.0,NaN,4.5,11.0,309.3,16 / 16,23091,2020-03-19 18:45:48:394
4.55856,0.215478,-3.438074,8.0,49.828747,24.045952,354.0,NaN,4.5,11.0,309.3,16 / 16,23591,2020-03-19 18:45:48:894
7.97748,-2.806004,1.604115,8.0,49.828747,24.045952,354.0,NaN,4.5,11.0,309.3,16 / 16,24091,2020-03-19 18:45:49:394
11.089942,-1.991976,-2.566584,8.0,49.828747,24.045952,354.0,NaN,4.5,11.0,309.3,16 / 16,24592,2020-03-19 18:45:49:895
13.096283,-6.287173,0.952892,8.0,49.828747,24.045952,354.0,NaN,4.5,11.0,309.3,16 / 16,25091,2020-03-19 18:45:50:394
11.003751,0.215478,-2.705448,8.0,49.828747,24.045952,354.0,NaN,4.5,11.0,309.3,16 / 16,25592,2020-03-19 18:45:50:895
12.938266,-6.277597,0.737414,8.0,49.828747,24.045952,354.0,NaN,4.5,11.0,309.3,16 / 16,26092,2020-03-19 18:45:51:395
13.603854,-6.234501,2.121263,8.0,49.828747,24.045952,354.0,NaN,4.5,11.0,309.3,16 / 16,26591,2020-03-19 18:45:51:894
14.982914,-4.362235,-0.191536,8.0,49.828747,24.045952,354.0,NaN,4.5,11.0,309.3,16 / 16,27091,2020-03-19 18:45:52:394
7.541735,-5.822698,1.723825,8.0,49.828747,24.045952,354.0,NaN,4.5,11.0,309.3,16 / 16,27592,2020-03-19 18:45:52:895
14.882358,-2.135628,0.287304,8.0,49.828747,24.045952,354.0,NaN,4.5,11.0,309.3,16 / 16,28091,2020-03-19 18:45:53:394
4.879383,-3.68707,0.282516,8.0,49.828747,24.045952,354.0,NaN,4.5,11.0,309.3,16 / 16,28591,2020-03-19 18:45:53:894
6.665458,-1.450886,-0.545878,8.0,49.828747,24.045952,354.0,NaN,4.5,11.0,309.3,16 / 16,29092,2020-03-19 18:45:54:395
3.950433,-4.534618,-0.507571,8.0,49.828747,24.045952,354.0,NaN,4.5,11.0,309.3,16 / 16,29591,2020-03-19 18:45:54:894
8.374918,-2.03986,-0.967257,8.0,49.828747,24.045952,354.0,NaN,4.5,11.0,309.3,16 / 16,30091,2020-03-19 18:45:55:394
5.588067,-3.940856,0.550666,8.0,49.828747,24.045952,354.0,NaN,4.5,11.0,309.3,16 / 16,30592,2020-03-19 18:45:55:895
9.835381,0.057461,-1.489193,8.0,49.828747,24.045952,354.0,NaN,4.5,11.0,309.3,16 / 16,31091,2020-03-19 18:45:56:394
8.710106,-5.793968,1.517924,8.0,49.828747,24.045952,354.0,NaN,4.5,11.0,309.3,16 / 16,31591,2020-03-19 18:45:56:894
12.220005,-7.891289,1.23062,8.0,49.828747,24.045952,354.0,NaN,4.5,11.0,309.3,16 / 16,32092,2020-03-19 18:45:57:395
14.192827,-6.320692,-0.047884,8.0,49.828747,24.045952,354.0,NaN,4.5,11.0,309.3,16 / 16,32592,2020-03-19 18:45:57:895
5.506664,-6.742072,2.336741,8.0,49.828747,24.045952,354.0,NaN,4.5,11.0,309.3,16 / 16,33091,2020-03-19 18:45:58:394
15.768212,-5.57849,0.445322,8.0,49.828747,24.045952,354.0,NaN,4.5,11.0,309.3,16 / 16,33592,2020-03-19 18:45:58:895
7.833828,-5.995081,2.480393,8.0,49.828747,24.045952,354.0,NaN,4.5,11.0,309.3,16 / 16,34092,2020-03-19 18:45:59:395
10.390836,-3.050213,0.502782,8.0,49.828747,24.045952,354.0,NaN,4.5,11.0,309.3,16 / 16,34591,2020-03-19 18:45:59:894
4.065354,-4.113238,0.038307,8.0,49.828747,24.045952,354.0,NaN,4.5,11.0,309.3,16 / 16,35092,2020-03-19 18:46:00:395
9.773131,0.086191,-3.069367,8.0,49.828747,24.045952,354.0,NaN,4.5,11.0,309.3,16 / 16,35591,2020-03-19 18:46:00:894
7.292739,-3.993528,0.641646,8.0,49.828747,24.045952,354.0,NaN,4.5,11.0,309.3,16 / 16,36092,2020-03-19 18:46:01:395
11.956643,-1.13964,-1.37906,8.0,49.828747,24.045952,354.0,NaN,4.5,11.0,309.3,16 / 16,36592,2020-03-19 18:46:01:895
9.346964,-5.717354,1.216255,8.0,49.828747,24.045952,354.0,NaN,4.5,11.0,309.3,16 / 16,37091,2020-03-19 18:46:02:394
8.034941,0.656011,-2.03986,8.0,49.828747,24.045952,354.0,NaN,4.5,11.0,309.3,16 / 16,37591,2020-03-19 18:46:02:894
6.33027,-1.853112,1.584962,8.0,49.828747,24.045952,354.0,NaN,4.5,11.0,309.3,16 / 16,38092,2020-03-19 18:46:03:395
9.270349,0.411803,-2.705448,8.0,49.828747,24.045952,354.0,NaN,4.5,11.0,309.3,16 / 16,38591,2020-03-19 18:46:03:894
9.356541,-4.161122,1.843535,8.0,49.828747,24.045952,354.0,NaN,4.5,11.0,309.3,16 / 16,39092,2020-03-19 18:46:04:395
10.922348,-6.655881,-0.962469,8.0,49.828747,24.045952,354.0,NaN,4.5,11.0,309.3,16 / 16,39591,2020-03-19 18:46:04:894
16.721106,-4.649539,-0.80924,8.0,49.828747,24.045952,354.0,NaN,4.5,11.0,309.3,16 / 16,40092,2020-03-19 18:46:05:395
10.31901,-4.534618,2.087744,8.0,49.828747,24.045952,354.0,NaN,4.5,11.0,309.3,16 / 16,40592,2020-03-19 18:46:05:895
17.87511,-5.33907,1.848324,8.0,49.828747,24.045952,354.0,NaN,4.5,11.0,309.3,16 / 16,41091,2020-03-19 18:46:06:394
8.259996,-7.393295,1.508347,8.0,49.828747,24.045952,354.0,NaN,4.5,11.0,309.3,16 / 16,41591,2020-03-19 18:46:06:894
13.656527,-6.119579,0.641646,8.0,49.828747,24.045952,354.0,NaN,4.5,11.0,309.3,16 / 16,42092,2020-03-19 18:46:07:395
5.386954,-4.817134,-0.052672,8.0,49.828747,24.045952,354.0,NaN,4.5,11.0,309.3,16 / 16,42591,2020-03-19 18:46:07:894
6.430826,-1.273715,-1.651999,8.0,49.828747,24.045952,354.0,NaN,4.5,11.0,309.3,16 / 16,43091,2020-03-19 18:46:08:394
5.281609,-4.745308,1.158794,8.0,49.828747,24.045952,354.0,NaN,4.5,11.0,309.3,16 / 16,43591,2020-03-19 18:46:08:894
12.291832,-0.775721,-3.620033,8.0,49.828747,24.045952,354.0,NaN,4.5,11.0,309.3,16 / 16,44091,2020-03-19 18:46:09:394
10.357317,-8.75799,0.895431,8.0,49.828747,24.045952,354.0,NaN,4.5,11.0,309.3,16 / 16,44591,2020-03-19 18:46:09:894
12.89517,-7.546523,2.75812,8.0,49.828747,24.045952,354.0,NaN,4.5,11.0,309.3,16 / 16,45092,2020-03-19 18:46:10:395
9.902418,-6.469133,1.714248,8.0,49.828747,24.045952,354.0,NaN,4.5,11.0,309.3,16 / 16,45592,2020-03-19 18:46:10:895
14.84405,-9.294291,1.177947,8.0,49.828747,24.045952,354.0,NaN,4.5,11.0,309.3,16 / 16,46092,2020-03-19 18:46:11:395
13.991714,-5.803545,0.521936,8.0,49.828747,24.045952,354.0,NaN,4.5,11.0,309.3,16 / 16,46591,2020-03-19 18:46:11:894
8.030153,-7.010222,2.044648,8.0,49.828747,24.045952,354.0,NaN,4.5,11.0,309.3,16 / 16,47091,2020-03-19 18:46:12:394
15.308526,-3.854665,0.679953,8.0,49.828747,24.045952,354.0,NaN,4.5,11.0,309.3,16 / 16,47591,2020-03-19 18:46:12:894
2.834735,-4.434061,-0.885855,8.0,49.828747,24.045952,354.0,NaN,4.5,11.0,309.3,16 / 16,48091,2020-03-19 18:46:13:394
5.837064,-1.278504,-0.550666,8.0,49.828747,24.045952,354.0,NaN,4.5,11.0,309.3,16 / 16,48592,2020-03-19 18:46:13:895
5.243302,-3.624821,0.584185,8.0,49.828747,24.045952,354.0,NaN,4.5,11.0,309.3,16 / 16,49092,2020-03-19 18:46:14:395
8.054095,-1.326388,-0.670376,8.0,49.828747,24.045952,354.0,NaN,4.5,11.0,309.3,16 / 16,49592,2020-03-19 18:46:14:895
4.266468,-4.094085,-0.301669,8.0,49.828747,24.045952,354.0,NaN,4.5,11.0,309.3,16 / 16,50092,2020-03-19 18:46:15:395
12.291832,0.354342,-3.596091,8.0,49.828747,24.045952,354.0,NaN,4.5,11.0,309.3,16 / 16,50592,2020-03-19 18:46:15:895
11.779472,-10.228029,0.909797,8.0,49.828747,24.045952,354.0,NaN,4.5,11.0,309.3,16 / 16,51091,2020-03-19 18:46:16:394
11.870452,-8.346187,1.991976,8.0,49.828747,24.045952,354.0,NaN,4.5,11.0,309.3,16 / 16,51591,2020-03-19 18:46:16:894
15.782578,-6.028599,1.80044,8.0,49.828747,24.045952,354.0,NaN,4.5,11.0,309.3,16 / 16,52091,2020-03-19 18:46:17:394
7.302315,-7.503428,2.877831,8.0,49.828747,24.045952,354.0,NaN,4.5,11.0,309.3,16 / 16,52592,2020-03-19 18:46:17:895
11.961432,-3.696647,-0.794875,8.0,49.828747,24.045952,354.0,NaN,4.5,11.0,309.3,16 / 16,53092,2020-03-19 18:46:18:395
4.606444,-4.673482,-0.071826,8.0,49.828747,24.045952,354.0,NaN,4.5,11.0,309.3,16 / 16,53591,2020-03-19 18:46:18:894
5.956774,-1.005565,-2.097321,8.0,49.828747,24.045952,354.0,NaN,4.5,11.0,309.3,16 / 16,54091,2020-03-19 18:46:19:394
3.706224,-5.655104,0.349553,8.0,49.828747,24.045952,354.0,NaN,4.5,11.0,309.3,16 / 16,54591,2020-03-19 18:46:19:894
8.973468,-1.728614,-0.972046,8.0,49.828747,24.045952,354.0,NaN,4.5,11.0,309.3,16 / 16,55091,2020-03-19 18:46:20:394
6.019023,-3.112462,0.052672,8.0,49.828747,24.045952,354.0,NaN,4.5,11.0,309.3,16 / 16,55591,2020-03-19 18:46:20:894
7.278373,-0.732626,-6.038176,8.0,49.828747,24.045952,354.0,NaN,4.5,11.0,309.3,16 / 16,56091,2020-03-19 18:46:21:394
9.662998,-6.809109,0.938527,8.0,49.828747,24.045952,354.0,NaN,4.5,11.0,309.3,16 / 16,56591,2020-03-19 18:46:21:894
12.315774,-8.475474,2.561796,8.0,49.828747,24.045952,354.0,NaN,4.5,11.0,309.3,16 / 16,57091,2020-03-19 18:46:22:394
11.990162,-8.825027,0.737414,8.0,49.828747,24.045952,354.0,NaN,4.5,11.0,309.3,16 / 16,57591,2020-03-19 18:46:22:894
2.331953,-6.856993,3.907337,8.0,49.828747,24.045952,354.0,NaN,4.5,11.0,309.3,16 / 16,58091,2020-03-19 18:46:23:394
13.599066,-4.855441,0.248997,8.0,49.828747,24.045952,354.0,NaN,4.5,11.0,309.3,16 / 16,58591,2020-03-19 18:46:23:894
7.766791,-9.390059,-0.177171,8.0,49.828747,24.045952,354.0,NaN,4.5,11.0,309.3,16 / 16,59092,2020-03-19 18:46:24:395
15.902287,-2.992752,2.049437,8.0,49.828747,24.045952,354.0,NaN,4.5,11.0,309.3,16 / 16,59592,2020-03-19 18:46:24:895
3.8403,-5.300762,-0.038307,8.0,49.828747,24.045952,354.0,NaN,4.5,11.0,309.3,16 / 16,60092,2020-03-19 18:46:25:395
6.919243,-0.191536,-2.059013,8.0,49.828747,24.045952,354.0,NaN,4.5,11.0,309.3,16 / 16,60592,2020-03-19 18:46:25:895
5.90889,-3.514688,-0.45011,8.0,49.828747,24.045952,354.0,NaN,4.5,11.0,309.3,16 / 16,61092,2020-03-19 18:46:26:395
12.421119,-0.78051,-5.295974,8.0,49.828747,24.045952,354.0,NaN,4.5,11.0,309.3,16 / 16,61592,2020-03-19 18:46:26:895
11.717223,-9.074024,0.933739,8.0,49.828747,24.045952,354.0,NaN,4.5,11.0,309.3,16 / 16,62091,2020-03-19 18:46:27:394
10.922348,0.459687,-2.868254,8.0,49.828747,24.045952,354.0,NaN,4.5,11.0,309.3,16 / 16,62591,2020-03-19 18:46:27:894
11.736377,-8.374918,1.637634,8.0,49.828747,24.045952,354.0,NaN,4.5,11.0,309.3,16 / 16,63092,2020-03-19 18:46:28:395
10.386047,-5.702988,3.303998,8.0,49.828747,24.045952,354.0,NaN,4.5,11.0,309.3,16 / 16,63592,2020-03-19 18:46:28:895
12.971785,-7.580042,-1.177947,8.0,49.828747,24.045952,354.0,NaN,4.5,11.0,309.3,16 / 16,64091,2020-03-19 18:46:29:394
5.54976,-6.617573,2.925715,8.0,49.828747,24.045952,354.0,NaN,4.5,11.0,309.3,16 / 16,64591,2020-03-19 18:46:29:894
10.577583,-4.898536,0.339977,8.0,49.828747,24.045952,354.0,NaN,4.5,11.0,309.3,16 / 16,65092,2020-03-19 18:46:30:395
10.371682,-4.750096,-0.023942,8.0,49.828747,24.045952,354.0,NaN,4.5,11.0,309.3,16 / 16,65592,2020-03-19 18:46:30:895
9.528923,1.450886,-1.120486,8.0,49.828747,24.045952,354.0,NaN,4.5,11.0,309.3,16 / 16,66092,2020-03-19 18:46:31:395
4.821923,-5.003881,-0.325611,8.0,49.828747,24.045952,354.0,NaN,4.5,11.0,309.3,16 / 16,66592,2020-03-19 18:46:31:895
6.162676,-1.790863,-0.981623,8.0,49.828747,24.045952,354.0,NaN,4.5,11.0,309.3,16 / 16,67091,2020-03-19 18:46:32:394
6.138734,-3.069367,-2.078167,8.0,49.828747,24.045952,354.0,NaN,4.5,11.0,309.3,16 / 16,67591,2020-03-19 18:46:32:894
11.233594,0.181959,-2.580949,8.0,49.828747,24.045952,354.0,NaN,4.5,11.0,309.3,0 / 0,68092,2020-03-19 18:46:33:395
9.533711,-5.228936,1.881843,8.0,49.828747,24.045952,354.0,NaN,4.5,11.0,309.3,0 / 1,68591,2020-03-19 18:46:33:894
16.625336,-7.450755,-0.057461,8.0,49.828747,24.045952,354.0,NaN,4.5,11.0,309.3,0 / 1,69091,2020-03-19 18:46:34:394
12.813767,-5.640739,-0.416591,8.0,49.828747,24.045952,354.0,NaN,4.5,11.0,309.3,8 / 8,69591,2020-03-19 18:46:34:894
7.40766,-10.314221,1.326388,8.0,49.828747,24.045952,354.0,NaN,4.5,11.0,309.3,8 / 8,70091,2020-03-19 18:46:35:394
14.020445,-7.101202,1.398214,8.0,49.828747,24.045952,354.0,NaN,4.5,11.0,309.3,18 / 19,70591,2020-03-19 18:46:35:894
5.774815,-5.473145,0.043096,8.0,49.828747,24.045952,354.0,NaN,4.5,11.0,309.3,18 / 19,71091,2020-03-19 18:46:36:394
13.397953,-4.620809,1.426944,8.0,49.829483,24.044985,321.0,NaN,5.328,8.0,308.9,17 / 18,71591,2020-03-19 18:46:36:894
3.442862,-6.703765,-0.110133,8.0,49.829483,24.044985,321.0,NaN,5.328,8.0,308.9,17 / 18,72091,2020-03-19 18:46:37:394
6.493075,-2.154781,0.114922,8.0,49.829483,24.044985,321.0,NaN,5.328,8.0,308.9,17 / 18,72592,2020-03-19 18:46:37:895
4.185065,-3.811569,0.92895,8.0,49.829483,24.044985,321.0,NaN,5.328,8.0,308.9,17 / 18,73092,2020-03-19 18:46:38:395
11.056423,0.052672,-1.465251,8.0,49.829483,24.044985,321.0,NaN,5.328,8.0,308.9,17 / 18,73592,2020-03-19 18:46:38:895
12.29662,-8.164227,1.977611,8.0,49.829483,24.044985,321.0,NaN,5.328,8.0,308.9,17 / 18,74091,2020-03-19 18:46:39:394
13.613431,-6.124367,2.169147,8.0,49.829483,24.044985,321.0,NaN,5.328,8.0,308.9,17 / 18,74591,2020-03-19 18:46:39:894
15.758636,-6.220136,-0.181959,8.0,49.829483,24.044985,321.0,NaN,5.328,8.0,308.9,17 / 18,75091,2020-03-19 18:46:40:394
13.067553,-7.431602,1.345541,8.0,49.829483,24.044985,321.0,NaN,5.328,8.0,308.9,17 / 18,75591,2020-03-19 18:46:40:894
13.603854,-6.689399,0.215478,8.0,49.829483,24.044985,321.0,NaN,5.328,8.0,308.9,17 / 18,76091,2020-03-19 18:46:41:394
7.565677,-6.694188,-5.679046,8.0,49.829483,24.044985,321.0,NaN,5.328,8.0,308.9,17 / 18,76591,2020-03-19 18:46:41:894
15.672444,-3.323152,3.663129,8.0,49.829483,24.044985,321.0,NaN,5.328,8.0,308.9,17 / 18,77091,2020-03-19 18:46:42:394
5.425261,-5.932832,-0.914585,8.0,49.829483,24.044985,321.0,NaN,5.328,8.0,308.9,17 / 18,77592,2020-03-19 18:46:42:895
7.072472,-1.996764,-0.373495,8.0,49.829483,24.044985,321.0,NaN,5.328,8.0,308.9,17 / 18,78092,2020-03-19 18:46:43:395
4.563349,-4.055777,0.584185,8.0,49.829483,24.044985,321.0,NaN,5.328,8.0,308.9,17 / 18,78592,2020-03-19 18:46:43:895
10.591949,0.248997,-2.355894,8.0,49.829483,24.044985,321.0,NaN,5.328,8.0,308.9,17 / 18,79091,2020-03-19 18:46:44:394
9.701305,-6.392518,1.149217,8.0,49.829483,24.044985,321.0,NaN,5.328,8.0,308.9,17 / 18,79592,2020-03-19 18:46:44:895
6.359,-0.823605,-0.196325,8.0,49.829483,24.044985,321.0,NaN,5.328,8.0,308.9,17 / 18,80092,2020-03-19 18:46:45:395
7.589619,-3.65834,1.80044,8.0,49.829483,24.044985,321.0,NaN,5.328,8.0,308.9,17 / 18,80592,2020-03-19 18:46:45:895
12.823344,-7.417237,-0.881066,8.0,49.829483,24.044985,321.0,NaN,5.328,8.0,308.9,17 / 18,81092,2020-03-19 18:46:46:395
15.409082,-6.871359,2.212242,8.0,49.829483,24.044985,321.0,NaN,5.328,8.0,308.9,17 / 18,81592,2020-03-19 18:46:46:895
8.054095,-7.503428,-0.828394,8.0,49.829483,24.044985,321.0,NaN,5.328,8.0,308.9,17 / 18,82092,2020-03-19 18:46:47:395
12.933477,-2.217031,-0.047884,8.0,49.829483,24.044985,321.0,NaN,5.328,8.0,308.9,17 / 18,82592,2020-03-19 18:46:47:895
3.500323,-4.663905,-0.45011,8.0,49.829483,24.044985,321.0,NaN,5.328,8.0,308.9,17 / 18,83091,2020-03-19 18:46:48:394
11.080365,-3.380613,-0.517148,8.0,49.829483,24.044985,321.0,NaN,5.328,8.0,308.9,17 / 18,83591,2020-03-19 18:46:48:894
7.967903,-6.129156,1.120486,8.0,49.829483,24.044985,321.0,NaN,5.328,8.0,308.9,17 / 18,84091,2020-03-19 18:46:49:394
14.647726,-2.183512,-1.450886,8.0,49.829483,24.044985,321.0,NaN,5.328,8.0,308.9,17 / 18,84591,2020-03-19 18:46:49:894
4.434062,-4.697424,-0.56982,8.0,49.829483,24.044985,321.0,NaN,5.328,8.0,308.9,17 / 18,85092,2020-03-19 18:46:50:395
5.31034,-0.933739,-1.01993,8.0,49.829483,24.044985,321.0,NaN,5.328,8.0,308.9,17 / 18,85591,2020-03-19 18:46:50:894
5.329493,-2.384625,0.124498,8.0,49.829483,24.044985,321.0,NaN,5.328,8.0,308.9,17 / 18,86091,2020-03-19 18:46:51:394
8.748413,-0.134075,-1.896208,8.0,49.829483,24.044985,321.0,NaN,5.328,8.0,308.9,17 / 18,86591,2020-03-19 18:46:51:894
12.928689,-2.657564,-0.555455,8.0,49.829483,24.044985,321.0,NaN,5.328,8.0,308.9,17 / 18,87092,2020-03-19 18:46:52:395
12.856863,-4.256891,0.92895,8.0,49.829483,24.044985,321.0,NaN,5.328,8.0,308.9,17 / 18,87591,2020-03-19 18:46:52:894
6.80911,-3.361459,0.914585,8.0,49.829483,24.044985,321.0,NaN,5.328,8.0,308.9,17 / 18,88091,2020-03-19 18:46:53:394
14.42746,-6.062118,0.244209,8.0,49.829483,24.044985,321.0,NaN,5.328,8.0,308.9,17 / 18,88591,2020-03-19 18:46:53:894
13.632585,-4.778826,1.11091,8.0,49.829483,24.044985,321.0,NaN,5.328,8.0,308.9,17 / 18,89091,2020-03-19 18:46:54:394
8.413225,-7.431602,-2.585738,8.0,49.829483,24.044985,321.0,NaN,5.328,8.0,308.9,17 / 18,89592,2020-03-19 18:46:54:895
13.88637,-4.046201,2.212242,8.0,49.829483,24.044985,321.0,NaN,5.328,8.0,308.9,17 / 18,90092,2020-03-19 18:46:55:395
5.386954,-6.512228,-0.488417,8.0,49.829483,24.044985,321.0,NaN,5.328,8.0,308.9,17 / 18,90592,2020-03-19 18:46:55:895
6.636728,-2.8491,0.263362,8.0,49.829483,24.044985,321.0,NaN,5.328,8.0,308.9,17 / 18,91092,2020-03-19 18:46:56:395
4.635175,-3.112462,0.229843,8.0,49.829483,24.044985,321.0,NaN,5.328,8.0,308.9,17 / 18,91592,2020-03-19 18:46:56:895
9.524135,-4.218583,-0.646434,8.0,49.829483,24.044985,321.0,NaN,5.328,8.0,308.9,17 / 18,92092,2020-03-19 18:46:57:395
4.050989,-3.380613,-0.502782,8.0,49.829483,24.044985,321.0,NaN,5.328,8.0,308.9,17 / 18,92592,2020-03-19 18:46:57:895
6.33027,-0.636858,-0.876278,8.0,49.829483,24.044985,321.0,NaN,5.328,8.0,308.9,17 / 18,93091,2020-03-19 18:46:58:394
9.141062,-5.334281,2.183512,8.0,49.829483,24.044985,321.0,NaN,5.328,8.0,308.9,17 / 18,93591,2020-03-19 18:46:58:894
12.909535,-7.742848,1.637634,8.0,49.829483,24.044985,321.0,NaN,5.328,8.0,308.9,17 / 18,94091,2020-03-19 18:46:59:394
12.823344,-7.465121,0.306458,8.0,49.829483,24.044985,321.0,NaN,5.328,8.0,308.9,17 / 18,94591,2020-03-19 18:46:59:894
10.141838,-7.364564,1.862689,8.0,49.829483,24.044985,321.0,NaN,5.328,8.0,308.9,17 / 18,95091,2020-03-19 18:47:00:394
13.642161,-5.377377,0.78051,8.0,49.829483,24.044985,321.0,NaN,5.328,8.0,308.9,17 / 18,95592,2020-03-19 18:47:00:895
7.603985,-9.476251,1.503559,8.0,49.829483,24.044985,321.0,NaN,5.328,8.0,308.9,17 / 18,96092,2020-03-19 18:47:01:395
14.00608,-5.161899,1.73819,8.0,49.829483,24.044985,321.0,NaN,5.328,8.0,308.9,17 / 18,96591,2020-03-19 18:47:01:894
5.468357,-7.61835,2.097321,8.0,49.829483,24.044985,321.0,NaN,5.328,8.0,308.9,17 / 18,97091,2020-03-19 18:47:02:394
9.404425,-3.715801,0.277727,8.0,49.829483,24.044985,321.0,NaN,5.328,8.0,308.9,17 / 18,97591,2020-03-19 18:47:02:894
4.295198,-3.543418,-0.057461,8.0,49.829483,24.044985,321.0,NaN,5.328,8.0,308.9,17 / 18,98091,2020-03-19 18:47:03:394
5.434838,-0.727837,-1.35033,8.0,49.829483,24.044985,321.0,NaN,5.328,8.0,308.9,17 / 18,98592,2020-03-19 18:47:03:895
7.340623,-4.285621,0.699107,8.0,49.829483,24.044985,321.0,NaN,5.328,8.0,308.9,17 / 18,99091,2020-03-19 18:47:04:394
13.536817,-7.307103,0.311246,8.0,49.829483,24.044985,321.0,NaN,5.328,8.0,308.9,17 / 18,99591,2020-03-19 18:47:04:894
5.90889,-2.935291,0.59855,8.0,49.829483,24.044985,321.0,NaN,5.328,8.0,308.9,17 / 18,100091,2020-03-19 18:47:05:394
11.520899,-2.992752,-1.766921,8.0,49.829483,24.044985,321.0,NaN,5.328,8.0,308.9,17 / 18,100591,2020-03-19 18:47:05:894
10.711658,-7.852981,1.814805,8.0,49.829483,24.044985,321.0,NaN,5.328,8.0,308.9,17 / 18,101091,2020-03-19 18:47:06:394
9.366117,-7.259219,2.212242,8.0,49.829483,24.044985,321.0,NaN,5.328,8.0,308.9,17 / 18,101591,2020-03-19 18:47:06:894
16.486473,-7.699753,1.053449,8.0,49.829483,24.044985,321.0,NaN,5.328,8.0,308.9,17 / 18,102091,2020-03-19 18:47:07:394
5.334282,-6.454767,1.465252,8.0,49.829483,24.044985,321.0,NaN,5.328,8.0,308.9,17 / 18,102591,2020-03-19 18:47:07:894
8.978256,-3.983951,-0.09098,8.0,49.829483,24.044985,321.0,NaN,5.328,8.0,308.9,17 / 18,103091,2020-03-19 18:47:08:394
4.151546,-3.591303,-0.071826,8.0,49.829483,24.044985,321.0,NaN,5.328,8.0,308.9,17 / 18,103592,2020-03-19 18:47:08:895
11.267113,-3.916914,-0.009577,8.0,49.829483,24.044985,321.0,NaN,5.328,8.0,308.9,17 / 18,104091,2020-03-19 18:47:09:394
8.451532,-5.568913,-0.138864,8.0,49.829483,24.044985,321.0,NaN,5.328,8.0,308.9,17 / 18,104591,2020-03-19 18:47:09:894
4.309563,-1.316811,-1.939303,8.0,49.829483,24.044985,321.0,NaN,5.328,8.0,308.9,17 / 18,105091,2020-03-19 18:47:10:394
7.029376,-3.007117,-0.124498,8.0,49.829483,24.044985,321.0,NaN,5.328,8.0,308.9,17 / 18,105591,2020-03-19 18:47:10:894
11.568783,-5.027823,-2.140416,8.0,49.829483,24.044985,321.0,NaN,5.328,8.0,308.9,17 / 18,106091,2020-03-19 18:47:11:394
13.148955,-6.785167,0.047884,8.0,49.829483,24.044985,321.0,NaN,5.328,8.0,308.9,17 / 18,106591,2020-03-19 18:47:11:894
7.311892,-10.055647,0.933739,8.0,49.829483,24.044985,321.0,NaN,5.328,8.0,308.9,17 / 18,107091,2020-03-19 18:47:12:394
14.197616,-5.185841,-0.095768,8.0,49.829483,24.044985,321.0,NaN,5.328,8.0,308.9,17 / 18,107591,2020-03-19 18:47:12:894
8.767567,-7.896077,1.508347,8.0,49.829483,24.044985,321.0,NaN,5.328,8.0,308.9,17 / 18,108092,2020-03-19 18:47:13:395
14.121001,-6.856993,0.459687,8.0,49.829483,24.044985,321.0,NaN,5.328,8.0,308.9,17 / 18,108592,2020-03-19 18:47:13:895
5.76045,-6.584054,1.144428,8.0,49.829483,24.044985,321.0,NaN,5.328,8.0,308.9,17 / 18,109092,2020-03-19 18:47:14:395
7.963115,-4.343082,1.000776,8.0,49.829483,24.044985,321.0,NaN,5.328,8.0,308.9,17 / 18,109592,2020-03-19 18:47:14:895
4.601656,-4.180276,1.015142,8.0,49.829483,24.044985,321.0,NaN,5.328,8.0,308.9,17 / 18,110092,2020-03-19 18:47:15:395
7.982269,-0.469264,-2.470816,8.0,49.829483,24.044985,321.0,NaN,5.328,8.0,308.9,17 / 18,110591,2020-03-19 18:47:15:894
9.102755,-5.717354,2.06859,8.0,49.829483,24.044985,321.0,NaN,5.328,8.0,308.9,17 / 18,111091,2020-03-19 18:47:16:394
13.196839,-9.279925,1.340753,8.0,49.829483,24.044985,321.0,NaN,5.328,8.0,308.9,17 / 18,111591,2020-03-19 18:47:16:894
7.833828,-4.774038,1.187524,8.0,49.829483,24.044985,321.0,NaN,5.328,8.0,308.9,17 / 18,112091,2020-03-19 18:47:17:394
13.397953,-8.42759,0.794875,8.0,49.829483,24.044985,321.0,NaN,5.328,8.0,308.9,17 / 18,112591,2020-03-19 18:47:17:894
12.569559,-6.349423,-0.23942,8.0,49.829483,24.044985,321.0,NaN,5.328,8.0,308.9,17 / 18,113091,2020-03-19 18:47:18:394
7.757214,-10.309433,0.68953,8.0,49.829483,24.044985,321.0,NaN,5.328,8.0,308.9,17 / 18,113591,2020-03-19 18:47:18:894
14.66688,-5.291186,0.105345,8.0,49.829483,24.044985,321.0,NaN,5.328,8.0,308.9,17 / 18,114091,2020-03-19 18:47:19:394
4.539407,-5.995081,0.35913,8.0,49.829483,24.044985,321.0,NaN,5.328,8.0,308.9,17 / 18,114592,2020-03-19 18:47:19:895
7.426814,-2.911349,0.110133,8.0,49.829483,24.044985,321.0,NaN,5.328,8.0,308.9,17 / 18,115092,2020-03-19 18:47:20:395
4.783615,-3.849876,0.885855,8.0,49.829483,24.044985,321.0,NaN,5.328,8.0,308.9,17 / 18,115592,2020-03-19 18:47:20:895
9.706094,-0.732626,-1.249773,8.0,49.829483,24.044985,321.0,NaN,5.328,8.0,308.9,17 / 18,116092,2020-03-19 18:47:21:395
4.127604,-3.615245,0.244209,8.0,49.829483,24.044985,321.0,NaN,5.328,8.0,308.9,17 / 18,116591,2020-03-19 18:47:21:894
8.140286,-0.521936,-1.369483,8.0,49.829483,24.044985,321.0,NaN,5.328,8.0,308.9,17 / 18,117091,2020-03-19 18:47:22:394
8.99741,-6.732495,1.163582,8.0,49.829483,24.044985,321.0,NaN,5.328,8.0,308.9,17 / 18,117591,2020-03-19 18:47:22:894
13.747506,-6.502651,2.087744,8.0,49.829483,24.044985,321.0,NaN,5.328,8.0,308.9,17 / 18,118092,2020-03-19 18:47:23:395
12.061988,-8.015787,0.531513,8.0,49.829483,24.044985,321.0,NaN,5.328,8.0,308.9,17 / 18,118591,2020-03-19 18:47:23:894
6.545748,-6.95755,2.676718,8.0,49.829483,24.044985,321.0,NaN,5.328,8.0,308.9,17 / 18,119091,2020-03-19 18:47:24:394
10.362105,-3.452439,0.603339,8.0,49.829483,24.044985,321.0,NaN,5.328,8.0,308.9,17 / 18,119591,2020-03-19 18:47:24:894
3.801993,-3.682282,0.502782,8.0,49.829483,24.044985,321.0,NaN,5.328,8.0,308.9,17 / 18,120091,2020-03-19 18:47:25:394
5.434838,-0.905008,-1.733402,8.0,49.829483,24.044985,321.0,NaN,5.328,8.0,308.9,17 / 18,120591,2020-03-19 18:47:25:894
2.72939,-3.940856,0.306458,8.0,49.829483,24.044985,321.0,NaN,5.328,8.0,308.9,17 / 18,121092,2020-03-19 18:47:26:395
4.783615,-2.063802,0.636858,8.0,49.829483,24.044985,321.0,NaN,5.328,8.0,308.9,17 / 18,121591,2020-03-19 18:47:26:894
6.746861,-1.053449,-5.224148,8.0,49.829975,24.044312,327.1,NaN,,23.343002,,0 / 1,122091,2020-03-19 18:47:27:394
8.810662,-0.617704,-2.030283,8.0,49.829975,24.044312,327.1,NaN,,23.343002,,0 / 1,122591,2020-03-19 18:47:27:894
11.415554,-8.336611,2.097321,8.0,49.829975,24.044312,327.1,NaN,,23.343002,,7 / 7,123091,2020-03-19 18:47:28:394
14.221559,-9.016563,0.656011,8.0,49.829975,24.044312,327.1,NaN,,23.343002,,7 / 7,123591,2020-03-19 18:47:28:894
11.927913,-8.394072,-0.368707,8.0,49.829975,24.044312,327.1,NaN,,23.343002,,15 / 16,124091,2020-03-19 18:47:29:394
7.953538,-6.435614,1.407791,8.0,49.829975,24.044312,327.1,NaN,,23.343002,,15 / 16,124592,2020-03-19 18:47:29:895
14.097059,-4.252102,2.619257,8.0,49.829975,24.044312,327.1,NaN,,23.343002,,16 / 17,125091,2020-03-19 18:47:30:394
4.419697,-5.645528,0.201113,8.0,49.83012,24.044193,339.0,NaN,4.68,10.0,339.0,16 / 17,125592,2020-03-19 18:47:30:895
5.861006,-3.32794,-0.54109,8.0,49.83012,24.044193,339.0,NaN,4.68,10.0,339.0,16 / 17,126091,2020-03-19 18:47:31:394
5.214572,-7.651869,0.282516,8.0,49.83012,24.044193,339.0,NaN,4.68,10.0,339.0,16 / 17,126591,2020-03-19 18:47:31:894
8.317456,-4.548983,-0.3304,8.0,49.83012,24.044193,339.0,NaN,4.68,10.0,339.0,16 / 17,127091,2020-03-19 18:47:32:394
4.237737,-3.840299,0.043096,8.0,49.83012,24.044193,339.0,NaN,4.68,10.0,339.0,16 / 17,127591,2020-03-19 18:47:32:894
6.014235,-0.21069,-1.359906,8.0,49.83012,24.044193,339.0,NaN,4.68,10.0,339.0,16 / 17,128091,2020-03-19 18:47:33:394
7.010223,-4.280833,0.6608,8.0,49.83012,24.044193,339.0,NaN,4.68,10.0,339.0,16 / 17,128591,2020-03-19 18:47:33:894
12.061988,-1.206678,-1.25935,8.0,49.83012,24.044193,339.0,NaN,4.68,10.0,339.0,16 / 17,129091,2020-03-19 18:47:34:394
8.394072,-7.503428,0.555455,8.0,49.83012,24.044193,339.0,NaN,4.68,10.0,339.0,16 / 17,129591,2020-03-19 18:47:34:894
10.572795,-3.773262,3.466804,8.0,49.83012,24.044193,339.0,NaN,4.68,10.0,339.0,16 / 17,130092,2020-03-19 18:47:35:395
15.212758,-7.987056,0.316035,8.0,49.83012,24.044193,339.0,NaN,4.68,10.0,339.0,16 / 17,130592,2020-03-19 18:47:35:895
6.502652,-6.402095,3.308787,8.0,49.83012,24.044193,339.0,NaN,4.68,10.0,339.0,16 / 17,131092,2020-03-19 18:47:36:395
9.643845,-1.221043,-0.861913,8.0,49.83012,24.044193,339.0,NaN,4.68,10.0,339.0,16 / 17,131592,2020-03-19 18:47:36:895
4.19943,-3.931279,-0.110133,8.0,49.83012,24.044193,339.0,NaN,4.68,10.0,339.0,16 / 17,132092,2020-03-19 18:47:37:395
6.574478,0.167594,-1.853112,8.0,49.83012,24.044193,339.0,NaN,4.68,10.0,339.0,16 / 17,132591,2020-03-19 18:47:37:894
4.625598,-7.52737,-0.095768,8.0,49.83012,24.044193,339.0,NaN,4.68,10.0,339.0,16 / 17,133091,2020-03-19 18:47:38:394
9.653421,-3.428497,-0.732626,8.0,49.83012,24.044193,339.0,NaN,4.68,10.0,339.0,16 / 17,133591,2020-03-19 18:47:38:894
5.353435,-3.969586,-0.296881,8.0,49.83012,24.044193,339.0,NaN,4.68,10.0,339.0,16 / 17,134091,2020-03-19 18:47:39:394
5.104438,-0.59855,-0.995988,8.0,49.83012,24.044193,339.0,NaN,4.68,10.0,339.0,16 / 17,134592,2020-03-19 18:47:39:895
4.788404,-3.423708,0.344765,8.0,49.83012,24.044193,339.0,NaN,4.68,10.0,339.0,16 / 17,135092,2020-03-19 18:47:40:395
9.02614,-0.818817,-1.283292,8.0,49.83012,24.044193,339.0,NaN,4.68,10.0,339.0,16 / 17,135592,2020-03-19 18:47:40:895
9.179369,-5.386954,0.727837,8.0,49.83012,24.044193,339.0,NaN,4.68,10.0,339.0,16 / 17,136092,2020-03-19 18:47:41:395
12.425907,-7.359776,-0.363919,8.0,49.83012,24.044193,339.0,NaN,4.68,10.0,339.0,16 / 17,136591,2020-03-19 18:47:41:894
7.082049,-3.32794,0.914585,8.0,49.83012,24.044193,339.0,NaN,4.68,10.0,339.0,16 / 17,137091,2020-03-19 18:47:42:394
11.535264,-4.893748,-1.455675,8.0,49.83012,24.044193,339.0,NaN,4.68,10.0,339.0,16 / 17,137591,2020-03-19 18:47:42:894
13.733141,-8.240842,0.402226,8.0,49.83012,24.044193,339.0,NaN,4.68,10.0,339.0,16 / 17,138091,2020-03-19 18:47:43:394
9.121908,-7.876923,1.316811,8.0,49.83012,24.044193,339.0,NaN,4.68,10.0,339.0,16 / 17,138591,2020-03-19 18:47:43:894
17.104177,-8.370129,1.010353,8.0,49.83012,24.044193,339.0,NaN,4.68,10.0,339.0,16 / 17,139091,2020-03-19 18:47:44:394
6.574478,-7.230489,2.533065,8.0,49.83012,24.044193,339.0,NaN,4.68,10.0,339.0,16 / 17,139591,2020-03-19 18:47:44:894
12.038046,-3.600879,0.59855,8.0,49.83012,24.044193,339.0,NaN,4.68,10.0,339.0,16 / 17,140091,2020-03-19 18:47:45:394
3.438074,-3.926491,-1.134852,8.0,49.83012,24.044193,339.0,NaN,4.68,10.0,339.0,16 / 17,140591,2020-03-19 18:47:45:894
14.413095,-7.642292,0.933739,8.0,49.83012,24.044193,339.0,NaN,4.68,10.0,339.0,16 / 17,141091,2020-03-19 18:47:46:394
4.453215,-6.804321,1.565808,8.0,49.83012,24.044193,339.0,NaN,4.68,10.0,339.0,16 / 17,141591,2020-03-19 18:47:46:894
4.946421,-1.68073,-0.579397,8.0,49.83012,24.044193,339.0,NaN,4.68,10.0,339.0,16 / 17,142091,2020-03-19 18:47:47:394
5.48751,-3.031059,0.641646,8.0,49.83012,24.044193,339.0,NaN,4.68,10.0,339.0,16 / 17,142592,2020-03-19 18:47:47:895
9.830592,-1.704672,-1.728614,8.0,49.83012,24.044193,339.0,NaN,4.68,10.0,339.0,16 / 17,143091,2020-03-19 18:47:48:394
12.89517,-6.636727,0.47884,8.0,49.83012,24.044193,339.0,NaN,4.68,10.0,339.0,16 / 17,143591,2020-03-19 18:47:48:894
8.044518,-7.872135,0.790087,8.0,49.83012,24.044193,339.0,NaN,4.68,10.0,339.0,16 / 17,144091,2020-03-19 18:47:49:394
13.10586,-4.821922,0.9912,8.0,49.83012,24.044193,339.0,NaN,4.68,10.0,339.0,16 / 17,144591,2020-03-19 18:47:49:894
8.868123,-8.226476,2.997541,8.0,49.83012,24.044193,339.0,NaN,4.68,10.0,339.0,16 / 17,145091,2020-03-19 18:47:50:394
15.68681,-7.757213,0.536301,8.0,49.83012,24.044193,339.0,NaN,4.68,10.0,339.0,16 / 17,145591,2020-03-19 18:47:50:894
5.822699,-7.240066,1.307234,8.0,49.83012,24.044193,339.0,NaN,4.68,10.0,339.0,16 / 17,146091,2020-03-19 18:47:51:394
7.331046,-3.768473,-1.393425,8.0,49.83012,24.044193,339.0,NaN,4.68,10.0,339.0,16 / 17,146591,2020-03-19 18:47:51:894
4.845865,-3.916914,0.100556,8.0,49.83012,24.044193,339.0,NaN,4.68,10.0,339.0,16 / 17,147091,2020-03-19 18:47:52:394
7.173029,-0.445322,-1.403002,8.0,49.83012,24.044193,339.0,NaN,4.68,10.0,339.0,16 / 17,147591,2020-03-19 18:47:52:894
7.000646,-5.702988,0.986411,8.0,49.83012,24.044193,339.0,NaN,4.68,10.0,339.0,16 / 17,148091,2020-03-19 18:47:53:394
13.560759,-7.522581,0.713472,8.0,49.83012,24.044193,339.0,NaN,4.68,10.0,339.0,16 / 17,148591,2020-03-19 18:47:53:894
7.331046,-3.892972,1.872266,8.0,49.83012,24.044193,339.0,NaN,4.68,10.0,339.0,16 / 17,149092,2020-03-19 18:47:54:395
14.633361,-7.10599,-2.106897,8.0,49.83012,24.044193,339.0,NaN,4.68,10.0,339.0,16 / 17,149592,2020-03-19 18:47:54:895
13.484144,-6.071695,-1.177947,8.0,49.83012,24.044193,339.0,NaN,4.68,10.0,339.0,16 / 17,150091,2020-03-19 18:47:55:394
7.867347,-8.025364,0.794875,8.0,49.83012,24.044193,339.0,NaN,4.68,10.0,339.0,16 / 17,150591,2020-03-19 18:47:55:894
13.986926,-5.372588,0.407014,8.0,49.83012,24.044193,339.0,NaN,4.68,10.0,339.0,16 / 17,151092,2020-03-19 18:47:56:395
2.839523,-4.146757,-0.263362,8.0,49.83012,24.044193,339.0,NaN,4.68,10.0,339.0,16 / 17,151592,2020-03-19 18:47:56:895
3.572149,-1.637634,-1.604115,8.0,49.83012,24.044193,339.0,NaN,4.68,10.0,339.0,16 / 17,152092,2020-03-19 18:47:57:395
5.616797,-3.414132,0.110133,8.0,49.83012,24.044193,339.0,NaN,4.68,10.0,339.0,16 / 17,152592,2020-03-19 18:47:57:895
5.272033,-2.858677,-0.895431,8.0,49.83012,24.044193,339.0,NaN,4.68,10.0,339.0,16 / 17,153091,2020-03-19 18:47:58:394
5.142745,-3.20823,0.052672,8.0,49.83012,24.044193,339.0,NaN,4.68,10.0,339.0,16 / 17,153591,2020-03-19 18:47:58:894
10.840945,0.186748,-1.790863,8.0,49.83012,24.044193,339.0,NaN,4.68,10.0,339.0,16 / 17,154091,2020-03-19 18:47:59:394
11.319786,-8.422802,1.177947,8.0,49.83012,24.044193,339.0,NaN,4.68,10.0,339.0,16 / 17,154592,2020-03-19 18:47:59:895
9.193734,-7.096413,1.302446,8.0,49.83012,24.044193,339.0,NaN,4.68,10.0,339.0,16 / 17,155091,2020-03-19 18:48:00:394
16.721106,-4.261679,0.076614,8.0,49.83012,24.044193,339.0,NaN,4.68,10.0,339.0,16 / 17,155592,2020-03-19 18:48:00:895
4.074931,-7.584831,4.094085,8.0,49.83012,24.044193,339.0,NaN,4.68,10.0,339.0,16 / 17,156091,2020-03-19 18:48:01:394
7.900866,-3.476381,0.306458,8.0,49.83012,24.044193,339.0,NaN,4.68,10.0,339.0,16 / 17,156592,2020-03-19 18:48:01:895
3.514688,-5.621585,0.004788,8.0,49.83012,24.044193,339.0,NaN,4.68,10.0,339.0,16 / 17,157092,2020-03-19 18:48:02:395
9.715671,-2.600103,0.550666,8.0,49.83012,24.044193,339.0,NaN,4.68,10.0,339.0,16 / 17,157592,2020-03-19 18:48:02:895
4.050989,-4.01747,-0.967257,8.0,49.83012,24.044193,339.0,NaN,4.68,10.0,339.0,16 / 17,158091,2020-03-19 18:48:03:394
6.277597,-0.823605,-1.216254,8.0,49.83012,24.044193,339.0,NaN,4.68,10.0,339.0,16 / 17,158591,2020-03-19 18:48:03:894
5.655105,-3.217807,0.852336,8.0,49.83012,24.044193,339.0,NaN,4.68,10.0,339.0,16 / 17,159091,2020-03-19 18:48:04:394
10.936713,-1.790863,0.502782,8.0,49.83012,24.044193,339.0,NaN,4.68,10.0,339.0,16 / 17,159591,2020-03-19 18:48:04:894
10.520123,-5.722142,0.847547,8.0,49.83012,24.044193,339.0,NaN,4.68,10.0,339.0,16 / 17,160091,2020-03-19 18:48:05:394
10.199299,-5.631162,2.346318,8.0,49.83012,24.044193,339.0,NaN,4.68,10.0,339.0,16 / 17,160591,2020-03-19 18:48:05:894
7.331046,-6.473921,1.843535,8.0,49.83012,24.044193,339.0,NaN,4.68,10.0,339.0,16 / 17,161091,2020-03-19 18:48:06:394
13.206416,-7.412448,0.78051,8.0,49.83012,24.044193,339.0,NaN,4.68,10.0,339.0,16 / 17,161591,2020-03-19 18:48:06:894
15.05474,-5.061342,-1.101333,8.0,49.83012,24.044193,339.0,NaN,4.68,10.0,339.0,16 / 17,162091,2020-03-19 18:48:07:394
11.219229,-5.612008,1.134852,8.0,49.83012,24.044193,339.0,NaN,4.68,10.0,339.0,16 / 17,162592,2020-03-19 18:48:07:895
13.072341,-5.774814,2.221819,8.0,49.83012,24.044193,339.0,NaN,4.68,10.0,339.0,16 / 17,163091,2020-03-19 18:48:08:394
4.817134,-4.860229,-0.248997,8.0,49.83012,24.044193,339.0,NaN,4.68,10.0,339.0,16 / 17,163591,2020-03-19 18:48:08:894
6.584055,-2.767697,-0.560243,8.0,49.83012,24.044193,339.0,NaN,4.68,10.0,339.0,16 / 17,164091,2020-03-19 18:48:09:394
4.548983,-3.960009,-0.440533,8.0,49.83012,24.044193,339.0,NaN,4.68,10.0,339.0,16 / 17,164591,2020-03-19 18:48:09:894
8.580819,-2.197877,-0.215478,8.0,49.83012,24.044193,339.0,NaN,4.68,10.0,339.0,16 / 17,165092,2020-03-19 18:48:10:395
4.376601,-3.074155,0.162806,8.0,49.83012,24.044193,339.0,NaN,4.68,10.0,339.0,16 / 17,165592,2020-03-19 18:48:10:895
4.606444,-0.603339,-1.522712,8.0,49.83012,24.044193,339.0,NaN,4.68,10.0,339.0,16 / 17,166092,2020-03-19 18:48:11:395
8.09719,-4.242525,1.556231,8.0,49.83012,24.044193,339.0,NaN,4.68,10.0,339.0,16 / 17,166591,2020-03-19 18:48:11:894
14.159308,-4.812345,-3.591303,8.0,49.83012,24.044193,339.0,NaN,4.68,10.0,339.0,16 / 17,167091,2020-03-19 18:48:12:394
12.607866,-5.631162,0.536301,8.0,49.83012,24.044193,339.0,NaN,4.68,10.0,339.0,16 / 17,167591,2020-03-19 18:48:12:894
8.09719,-11.386824,0.90022,8.0,49.83012,24.044193,339.0,NaN,4.68,10.0,339.0,16 / 17,168091,2020-03-19 18:48:13:394
16.874334,-7.819463,1.010353,8.0,49.83012,24.044193,339.0,NaN,4.68,10.0,339.0,16 / 17,168591,2020-03-19 18:48:13:894
12.459426,-7.283161,2.384625,8.0,49.83012,24.044193,339.0,NaN,4.68,10.0,339.0,16 / 17,169092,2020-03-19 18:48:14:395
14.513651,-6.445191,-1.685518,8.0,49.83012,24.044193,339.0,NaN,4.68,10.0,339.0,16 / 17,169592,2020-03-19 18:48:14:895
7.699753,-7.201759,2.748544,8.0,49.83012,24.044193,339.0,NaN,4.68,10.0,339.0,16 / 17,170092,2020-03-19 18:48:15:395
13.345281,-5.712565,1.015142,8.0,49.83012,24.044193,339.0,NaN,4.68,10.0,339.0,16 / 17,170591,2020-03-19 18:48:15:894
4.759673,-7.64708,2.035071,8.0,49.83012,24.044193,339.0,NaN,4.68,10.0,339.0,16 / 17,171091,2020-03-19 18:48:16:394
7.603985,-3.265691,-1.216254,8.0,49.83012,24.044193,339.0,NaN,4.68,10.0,339.0,16 / 17,171591,2020-03-19 18:48:16:894
6.114791,-4.276044,-2.978387,8.0,49.83012,24.044193,339.0,NaN,4.68,10.0,339.0,16 / 17,172091,2020-03-19 18:48:17:394
7.326257,0.675165,-2.829946,8.0,49.83012,24.044193,339.0,NaN,4.68,10.0,339.0,16 / 17,172591,2020-03-19 18:48:17:894
9.634268,-5.741296,2.097321,8.0,49.83012,24.044193,339.0,NaN,4.68,10.0,339.0,16 / 17,173091,2020-03-19 18:48:18:394
6.411672,-0.081403,-2.853888,8.0,49.83012,24.044193,339.0,NaN,4.68,10.0,339.0,16 / 17,173591,2020-03-19 18:48:18:894
8.485051,-5.468356,2.480393,8.0,49.83012,24.044193,339.0,NaN,4.68,10.0,339.0,16 / 17,174092,2020-03-19 18:48:19:395
11.956643,-7.838616,-0.632069,8.0,49.83012,24.044193,339.0,NaN,4.68,10.0,339.0,16 / 17,174592,2020-03-19 18:48:19:895
14.800955,-7.493851,0.301669,8.0,49.83012,24.044193,339.0,NaN,4.68,10.0,339.0,16 / 17,175092,2020-03-19 18:48:20:395
7.886501,-8.408437,1.637634,8.0,49.83012,24.044193,339.0,NaN,4.68,10.0,339.0,16 / 17,175591,2020-03-19 18:48:20:894
13.642161,-5.334281,1.695095,8.0,49.83012,24.044193,339.0,NaN,4.68,10.0,339.0,16 / 17,176091,2020-03-19 18:48:21:394
4.625598,-5.329493,1.474828,8.0,49.83012,24.044193,339.0,NaN,4.68,10.0,339.0,16 / 17,176591,2020-03-19 18:48:21:894
6.200983,-2.035071,-0.608127,8.0,49.83012,24.044193,339.0,NaN,4.68,10.0,339.0,16 / 17,177092,2020-03-19 18:48:22:395
6.339846,-7.129933,1.364695,8.0,49.83012,24.044193,339.0,NaN,4.68,10.0,339.0,16 / 17,177591,2020-03-19 18:48:22:894
9.662998,-4.754884,-0.335188,8.0,49.83012,24.044193,339.0,NaN,4.68,10.0,339.0,16 / 17,178092,2020-03-19 18:48:23:395
6.086061,-3.892972,0.292093,8.0,49.83012,24.044193,339.0,NaN,4.68,10.0,339.0,16 / 17,178591,2020-03-19 18:48:23:894
5.48751,0.35913,-2.322375,8.0,49.83012,24.044193,339.0,NaN,4.68,10.0,339.0,16 / 17,179091,2020-03-19 18:48:24:394
6.95755,-3.323152,1.254562,8.0,49.83012,24.044193,339.0,NaN,4.68,10.0,339.0,16 / 17,179591,2020-03-19 18:48:24:894
10.524911,-6.028599,-1.086968,8.0,49.83012,24.044193,339.0,NaN,4.68,10.0,339.0,16 / 17,180091,2020-03-19 18:48:25:394
10.673351,-8.571242,1.613692,8.0,49.83012,24.044193,339.0,NaN,4.68,10.0,339.0,16 / 17,180591,2020-03-19 18:48:25:894
10.922348,-6.493075,1.039084,8.0,49.83012,24.044193,339.0,NaN,4.68,10.0,339.0,16 / 17,181091,2020-03-19 18:48:26:394
15.825673,-9.126697,0.430956,8.0,49.83012,24.044193,339.0,NaN,4.68,10.0,339.0,16 / 17,181592,2020-03-19 18:48:26:895
12.804191,-7.546523,-0.526724,8.0,49.83012,24.044193,339.0,NaN,4.68,10.0,339.0,16 / 17,182091,2020-03-19 18:48:27:394
12.464214,-8.058882,-0.90022,8.0,49.83012,24.044193,339.0,NaN,4.68,10.0,339.0,16 / 17,182591,2020-03-19 18:48:27:894
10.429143,-8.839393,0.162806,8.0,49.83012,24.044193,339.0,NaN,4.68,10.0,339.0,16 / 17,183092,2020-03-19 18:48:28:395
14.642938,-5.200206,1.043872,8.0,49.83012,24.044193,339.0,NaN,4.68,10.0,339.0,16 / 17,183592,2020-03-19 18:48:28:895
6.23929,-5.626374,0.201113,8.0,49.83012,24.044193,339.0,NaN,4.68,10.0,339.0,16 / 17,184092,2020-03-19 18:48:29:395
6.641516,-3.433285,0.086191,8.0,49.83012,24.044193,339.0,NaN,4.68,10.0,339.0,16 / 17,184592,2020-03-19 18:48:29:895
4.778827,-3.792415,0.09098,8.0,49.83012,24.044193,339.0,NaN,4.68,10.0,339.0,16 / 17,185091,2020-03-19 18:48:30:394
8.073248,0.6608,-0.837971,8.0,49.83012,24.044193,339.0,NaN,4.68,10.0,339.0,16 / 17,185591,2020-03-19 18:48:30:894
4.19943,-2.667141,-0.177171,8.0,49.83012,24.044193,339.0,NaN,4.68,10.0,339.0,16 / 17,186091,2020-03-19 18:48:31:394
5.995081,-0.076614,-1.651999,8.0,49.83012,24.044193,339.0,NaN,4.68,10.0,339.0,16 / 17,186591,2020-03-19 18:48:31:894
7.173029,-3.720589,0.914585,8.0,49.83012,24.044193,339.0,NaN,4.68,10.0,339.0,16 / 17,187091,2020-03-19 18:48:32:394
10.309433,-3.725378,-2.614468,8.0,49.83012,24.044193,339.0,NaN,4.68,10.0,339.0,16 / 17,187591,2020-03-19 18:48:32:894
12.62702,-8.643068,0.497994,8.0,49.83012,24.044193,339.0,NaN,4.68,10.0,339.0,16 / 17,188091,2020-03-19 18:48:33:394
8.020576,-7.517793,-0.335188,8.0,49.83012,24.044193,339.0,NaN,4.68,10.0,339.0,16 / 17,188591,2020-03-19 18:48:33:894
13.656527,-8.51857,1.388637,8.0,49.83012,24.044193,339.0,NaN,4.68,10.0,339.0,16 / 17,189091,2020-03-19 18:48:34:394
7.335834,-6.847417,3.050213,8.0,49.83012,24.044193,339.0,NaN,4.68,10.0,339.0,16 / 17,189591,2020-03-19 18:48:34:894
13.172897,-7.067683,-1.599327,8.0,49.83012,24.044193,339.0,NaN,4.68,10.0,339.0,16 / 17,190092,2020-03-19 18:48:35:395
7.819463,-7.010222,-0.651223,8.0,49.83012,24.044193,339.0,NaN,4.68,10.0,339.0,16 / 17,190591,2020-03-19 18:48:35:894
13.632585,-4.750096,0.407014,8.0,49.83012,24.044193,339.0,NaN,4.68,10.0,339.0,16 / 17,191091,2020-03-19 18:48:36:394
4.994305,-5.72693,1.383849,8.0,49.83012,24.044193,339.0,NaN,4.68,10.0,339.0,16 / 17,191591,2020-03-19 18:48:36:894
3.811569,-1.436521,-0.847547,8.0,49.83012,24.044193,339.0,NaN,4.68,10.0,339.0,16 / 17,192091,2020-03-19 18:48:37:394
5.88016,-2.647987,-0.948104,8.0,49.83012,24.044193,339.0,NaN,4.68,10.0,339.0,16 / 17,192591,2020-03-19 18:48:37:894
9.835381,0.790087,-2.647987,8.0,49.83012,24.044193,339.0,NaN,4.68,10.0,339.0,16 / 17,193091,2020-03-19 18:48:38:394
8.269573,-5.425261,1.197101,8.0,49.83012,24.044193,339.0,NaN,4.68,10.0,339.0,16 / 17,193591,2020-03-19 18:48:38:894
6.095638,0.354342,-2.715025,8.0,49.83012,24.044193,339.0,NaN,4.68,10.0,339.0,16 / 17,194091,2020-03-19 18:48:39:394
6.971915,-2.585738,0.80924,8.0,49.83012,24.044193,339.0,NaN,4.68,10.0,339.0,16 / 17,194591,2020-03-19 18:48:39:894
10.223241,-6.028599,-1.197101,8.0,49.83012,24.044193,339.0,NaN,4.68,10.0,339.0,16 / 17,195091,2020-03-19 18:48:40:394
12.363658,-5.841852,0.435745,8.0,49.83012,24.044193,339.0,NaN,4.68,10.0,339.0,16 / 17,195591,2020-03-19 18:48:40:894
10.213664,-8.676587,2.231396,8.0,49.83012,24.044193,339.0,NaN,4.68,10.0,339.0,16 / 17,196091,2020-03-19 18:48:41:394
9.370906,-4.261679,0.201113,8.0,49.83012,24.044193,339.0,NaN,4.68,10.0,339.0,16 / 17,196591,2020-03-19 18:48:41:894
3.768474,-2.528277,-0.253785,8.0,49.83012,24.044193,339.0,NaN,4.68,10.0,339.0,16 / 17,197091,2020-03-19 18:48:42:394
3.423709,-0.392649,-1.541866,8.0,49.83012,24.044193,339.0,NaN,4.68,10.0,339.0,16 / 17,197592,2020-03-19 18:48:42:895
7.431602,-6.521805,0.790087,8.0,49.83012,24.044193,339.0,NaN,4.68,10.0,339.0,16 / 17,198092,2020-03-19 18:48:43:395
6.971915,-5.707777,-1.144428,8.0,49.83012,24.044193,339.0,NaN,4.68,10.0,339.0,16 / 17,198592,2020-03-19 18:48:43:895
4.419697,-3.902549,0.536301,8.0,49.83012,24.044193,339.0,NaN,4.68,10.0,339.0,16 / 17,199092,2020-03-19 18:48:44:395
6.746861,-1.94888,-0.21069,8.0,49.83012,24.044193,339.0,NaN,4.68,10.0,339.0,16 / 17,199591,2020-03-19 18:48:44:894
5.568913,-2.873042,0.9912,8.0,49.83012,24.044193,339.0,NaN,4.68,10.0,339.0,16 / 17,200091,2020-03-19 18:48:45:394
12.531252,-4.625597,-1.637634,8.0,49.83012,24.044193,339.0,NaN,4.68,10.0,339.0,16 / 17,200591,2020-03-19 18:48:45:894
12.263102,-5.93762,1.101333,8.0,49.83012,24.044193,339.0,NaN,4.68,10.0,339.0,16 / 17,201091,2020-03-19 18:48:46:394
9.490616,-8.887277,2.202666,8.0,49.83012,24.044193,339.0,NaN,4.68,10.0,339.0,16 / 17,201592,2020-03-19 18:48:46:895
12.124237,-7.31668,0.114922,8.0,49.83012,24.044193,339.0,NaN,4.68,10.0,339.0,16 / 17,202091,2020-03-19 18:48:47:394
8.978256,-8.820239,0.325611,8.0,49.83012,24.044193,339.0,NaN,4.68,10.0,339.0,16 / 17,202592,2020-03-19 18:48:47:895
16.031574,-4.869806,1.757344,8.0,49.83012,24.044193,339.0,NaN,4.68,10.0,339.0,16 / 17,203092,2020-03-19 18:48:48:395
8.437167,-4.22816,1.613692,8.0,49.83012,24.044193,339.0,NaN,4.68,10.0,339.0,16 / 17,203592,2020-03-19 18:48:48:895
7.963115,-1.086968,2.207454,8.0,49.83012,24.044193,339.0,NaN,4.68,10.0,339.0,16 / 17,204092,2020-03-19 18:48:49:395
4.654328,-1.359906,0.703895,8.0,49.83012,24.044193,339.0,NaN,4.68,10.0,339.0,16 / 17,204591,2020-03-19 18:48:49:894
6.746861,-0.129287,3.074155,8.0,49.83012,24.044193,339.0,NaN,4.68,10.0,339.0,16 / 17,205091,2020-03-19 18:48:50:394
9.758766,-3.840299,3.457227,8.0,49.83012,24.044193,339.0,NaN,4.68,10.0,339.0,16 / 17,205591,2020-03-19 18:48:50:894
10.43872,-7.972691,0.708684,8.0,49.83012,24.044193,339.0,NaN,4.68,10.0,339.0,16 / 17,206092,2020-03-19 18:48:51:395
5.856218,-3.782838,1.417368,8.0,49.83012,24.044193,339.0,NaN,4.68,10.0,339.0,16 / 17,206591,2020-03-19 18:48:51:894
10.611102,-5.166687,1.369483,8.0,49.83012,24.044193,339.0,NaN,4.68,10.0,339.0,0 / 0,207092,2020-03-19 18:48:52:395
13.206416,-6.876147,2.422932,8.0,49.83012,24.044193,339.0,NaN,4.68,10.0,339.0,0 / 0,207592,2020-03-19 18:48:52:895
8.178593,-8.671799,1.580173,8.0,49.83012,24.044193,339.0,NaN,4.68,10.0,339.0,0 / 2,208092,2020-03-19 18:48:53:395
15.705963,-5.798756,2.470816,8.0,49.83012,24.044193,339.0,NaN,4.68,10.0,339.0,0 / 2,208592,2020-03-19 18:48:53:895
6.675035,-6.382941,1.747767,8.0,49.83012,24.044193,339.0,NaN,4.68,10.0,339.0,0 / 7,209091,2020-03-19 18:48:54:394
9.303867,-3.404555,0.866701,8.0,49.83012,24.044193,339.0,NaN,4.68,10.0,339.0,0 / 7,209592,2020-03-19 18:48:54:895
4.343082,-3.098097,0.095768,8.0,49.8309,24.042927,329.0,NaN,6.48,8.5,328.0,20 / 20,210092,2020-03-19 18:48:55:395
5.3678,-0.56982,-1.747767,8.0,49.8309,24.042927,329.0,NaN,6.48,8.5,328.0,20 / 20,210591,2020-03-19 18:48:55:894
3.083732,-4.285621,-0.019154,8.0,49.8309,24.042927,329.0,NaN,6.48,8.5,328.0,20 / 20,211091,2020-03-19 18:48:56:394
5.535394,-0.507571,-2.049437,8.0,49.8309,24.042927,329.0,NaN,6.48,8.5,328.0,20 / 20,211591,2020-03-19 18:48:56:894
6.914455,-5.688623,2.451663,8.0,49.8309,24.042927,329.0,NaN,6.48,8.5,328.0,20 / 20,212091,2020-03-19 18:48:57:394
16.630125,-7.963114,1.958457,8.0,49.8309,24.042927,329.0,NaN,6.48,8.5,328.0,20 / 20,212592,2020-03-19 18:48:57:895
12.516887,-6.440402,-0.71826,8.0,49.8309,24.042927,329.0,NaN,6.48,8.5,328.0,20 / 20,213092,2020-03-19 18:48:58:395
5.66947,-7.465121,2.834735,8.0,49.8309,24.042927,329.0,NaN,6.48,8.5,328.0,20 / 20,213592,2020-03-19 18:48:58:895
12.636597,-2.901772,4.338294,8.0,49.8309,24.042927,329.0,NaN,6.48,8.5,328.0,20 / 20,214091,2020-03-19 18:48:59:394
3.572149,-3.557784,-1.225831,8.0,49.8309,24.042927,329.0,NaN,6.48,8.5,328.0,20 / 20,214591,2020-03-19 18:48:59:894
12.339716,-4.592078,1.795651,8.0,49.8309,24.042927,329.0,NaN,6.48,8.5,328.0,20 / 20,215091,2020-03-19 18:49:00:394
3.964798,-4.036624,-0.593762,8.0,49.8309,24.042927,329.0,NaN,6.48,8.5,328.0,20 / 20,215591,2020-03-19 18:49:00:894
3.873819,-2.331952,-1.043872,8.0,49.8309,24.042927,329.0,NaN,6.48,8.5,328.0,20 / 20,216091,2020-03-19 18:49:01:394
5.473145,-4.036624,1.264139,8.0,49.8309,24.042927,329.0,NaN,6.48,8.5,328.0,20 / 20,216592,2020-03-19 18:49:01:895
11.022904,-2.240973,0.694319,8.0,49.8309,24.042927,329.0,NaN,6.48,8.5,328.0,20 / 20,217091,2020-03-19 18:49:02:394
11.420342,-7.829039,2.317587,8.0,49.8309,24.042927,329.0,NaN,6.48,8.5,328.0,20 / 20,217591,2020-03-19 18:49:02:894
9.514558,-8.892065,0.186748,8.0,49.8309,24.042927,329.0,NaN,6.48,8.5,328.0,20 / 20,218092,2020-03-19 18:49:03:395
14.518439,-6.110002,3.648764,8.0,49.8309,24.042927,329.0,NaN,6.48,8.5,328.0,20 / 20,218591,2020-03-19 18:49:03:894
8.552089,-7.73806,3.189077,8.0,49.8309,24.042927,329.0,NaN,6.48,8.5,328.0,20 / 20,219091,2020-03-19 18:49:04:394
19.057846,-6.71813,1.340753,8.0,49.8309,24.042927,329.0,NaN,6.48,8.5,328.0,20 / 20,219592,2020-03-19 18:49:04:895
4.730943,-8.135497,5.410896,8.0,49.8309,24.042927,329.0,NaN,6.48,8.5,328.0,20 / 20,220091,2020-03-19 18:49:05:394
10.965444,-5.702988,3.811569,8.0,49.8309,24.042927,329.0,NaN,6.48,8.5,328.0,20 / 20,220591,2020-03-19 18:49:05:894
3.53863,-4.046201,-0.526724,8.0,49.8309,24.042927,329.0,NaN,6.48,8.5,328.0,20 / 20,221091,2020-03-19 18:49:06:394
6.325481,0.325611,-1.891419,8.0,49.8309,24.042927,329.0,NaN,6.48,8.5,328.0,20 / 20,221592,2020-03-19 18:49:06:895
6.306328,-3.902549,1.766921,8.0,49.8309,24.042927,329.0,NaN,6.48,8.5,328.0,0 / 0,222091,2020-03-19 18:49:07:394
11.975797,-4.94642,2.322376,8.0,49.8309,24.042927,329.0,NaN,6.48,8.5,328.0,0 / 0,222591,2020-03-19 18:49:07:894
14.925453,-6.363788,1.699883,8.0,49.8309,24.042927,329.0,NaN,6.48,8.5,328.0,0 / 5,223091,2020-03-19 18:49:08:394
11.678916,-2.063802,-2.355894,8.0,49.8309,24.042927,329.0,NaN,6.48,8.5,328.0,0 / 5,223591,2020-03-19 18:49:08:894
11.731588,-7.785944,2.561796,8.0,49.8309,24.042927,329.0,NaN,6.48,8.5,328.0,0 / 6,224091,2020-03-19 18:49:09:394
10.290278,-7.493851,2.954445,8.0,49.8309,24.042927,329.0,NaN,6.48,8.5,328.0,0 / 6,224591,2020-03-19 18:49:09:894
15.662868,-8.101978,2.815581,8.0,49.8309,24.042927,329.0,NaN,6.48,8.5,328.0,19 / 19,225091,2020-03-19 18:49:10:394
6.80911,-6.876147,3.801993,8.0,49.8309,24.042927,329.0,NaN,6.48,8.5,328.0,19 / 19,225592,2020-03-19 18:49:10:895
10.419566,-2.154781,-0.565032,8.0,49.8309,24.042927,329.0,NaN,6.48,8.5,328.0,21 / 21,226092,2020-03-19 18:49:11:395
4.309563,-2.87783,-0.043096,8.0,49.8309,24.042927,329.0,NaN,6.48,8.5,328.0,21 / 21,226591,2020-03-19 18:49:11:894
5.573702,2.331953,-2.509123,8.0,49.8309,24.042927,329.0,NaN,6.48,8.5,328.0,21 / 21,227091,2020-03-19 18:49:12:394
5.295975,-4.898536,-0.833182,8.0,49.8309,24.042927,329.0,NaN,6.48,8.5,328.0,21 / 21,227592,2020-03-19 18:49:12:895
7.268797,-1.374272,-1.307234,8.0,49.8309,24.042927,329.0,NaN,6.48,8.5,328.0,21 / 21,228092,2020-03-19 18:49:13:395
4.419697,-2.782062,0.268151,8.0,49.8309,24.042927,329.0,NaN,6.48,8.5,328.0,21 / 21,228592,2020-03-19 18:49:13:895
8.058883,1.005565,-0.794875,8.0,49.8309,24.042927,329.0,NaN,6.48,8.5,328.0,21 / 21,229092,2020-03-19 18:49:14:395
8.599973,-4.175488,2.552219,8.0,49.8309,24.042927,329.0,NaN,6.48,8.5,328.0,21 / 21,229592,2020-03-19 18:49:14:895
14.413095,-7.685387,1.398214,8.0,49.8309,24.042927,329.0,NaN,6.48,8.5,328.0,21 / 21,230092,2020-03-19 18:49:15:395
13.129802,-5.056554,0.335188,8.0,49.8309,24.042927,329.0,NaN,6.48,8.5,328.0,21 / 21,230592,2020-03-19 18:49:15:895
10.242394,-7.297527,3.303998,8.0,49.8309,24.042927,329.0,NaN,6.48,8.5,328.0,21 / 21,231092,2020-03-19 18:49:16:395
13.833697,-3.974375,-0.229843,8.0,49.8309,24.042927,329.0,NaN,6.48,8.5,328.0,21 / 21,231592,2020-03-19 18:49:16:895
10.002975,-7.637503,0.713472,8.0,49.8309,24.042927,329.0,NaN,6.48,8.5,328.0,21 / 21,232091,2020-03-19 18:49:17:394
14.78659,-5.430049,2.896984,8.0,49.8309,24.042927,329.0,NaN,6.48,8.5,328.0,21 / 21,232591,2020-03-19 18:49:17:894
4.462792,-6.311115,0.814029,8.0,49.8309,24.042927,329.0,NaN,6.48,8.5,328.0,21 / 21,233091,2020-03-19 18:49:18:394
4.266468,-2.94008,-0.35913,8.0,49.8309,24.042927,329.0,NaN,6.48,8.5,328.0,21 / 21,233591,2020-03-19 18:49:18:894
4.161122,-2.810793,0.842759,8.0,49.8309,24.042927,329.0,NaN,6.48,8.5,328.0,21 / 21,234091,2020-03-19 18:49:19:394
7.211336,-0.014365,0.699107,8.0,49.8309,24.042927,329.0,NaN,6.48,8.5,328.0,21 / 21,234591,2020-03-19 18:49:19:894
6.47871,-5.15711,3.160346,8.0,49.8309,24.042927,329.0,NaN,6.48,8.5,328.0,21 / 21,235091,2020-03-19 18:49:20:394
9.715671,-5.300762,3.361459,8.0,49.8309,24.042927,329.0,NaN,6.48,8.5,328.0,21 / 21,235591,2020-03-19 18:49:20:894
10.568007,-5.875371,1.431733,8.0,49.8309,24.042927,329.0,NaN,6.48,8.5,328.0,21 / 21,236092,2020-03-19 18:49:21:395
14.72434,-6.191406,3.351883,8.0,49.8309,24.042927,329.0,NaN,6.48,8.5,328.0,21 / 21,236592,2020-03-19 18:49:21:895
15.86398,-7.991845,0.799663,8.0,49.8309,24.042927,329.0,NaN,6.48,8.5,328.0,21 / 21,237092,2020-03-19 18:49:22:395
7.101202,-4.754884,4.031836,8.0,49.8309,24.042927,329.0,NaN,6.48,8.5,328.0,21 / 21,237592,2020-03-19 18:49:22:895
13.613431,-3.936067,2.355895,8.0,49.8309,24.042927,329.0,NaN,6.48,8.5,328.0,21 / 21,238092,2020-03-19 18:49:23:395
5.650316,-4.778826,0.105345,8.0,49.8309,24.042927,329.0,NaN,6.48,8.5,328.0,21 / 21,238592,2020-03-19 18:49:23:895
6.828264,-1.345541,0.459687,8.0,49.8309,24.042927,329.0,NaN,6.48,8.5,328.0,21 / 21,239092,2020-03-19 18:49:24:395
4.280833,-2.480393,-0.009577,8.0,49.8309,24.042927,329.0,NaN,6.48,8.5,328.0,21 / 21,239592,2020-03-19 18:49:24:895
11.204864,-4.127603,-0.679953,8.0,49.8309,24.042927,329.0,NaN,6.48,8.5,328.0,21 / 21,240091,2020-03-19 18:49:25:394
4.074931,-3.265691,0.201113,8.0,49.8309,24.042927,329.0,NaN,6.48,8.5,328.0,21 / 21,240592,2020-03-19 18:49:25:895
5.846641,0.723049,-2.255338,8.0,49.8309,24.042927,329.0,NaN,6.48,8.5,328.0,21 / 21,241092,2020-03-19 18:49:26:395
6.114791,-3.294421,2.355895,8.0,49.8309,24.042927,329.0,NaN,6.48,8.5,328.0,21 / 21,241591,2020-03-19 18:49:26:894
13.211205,-4.189853,1.757344,8.0,49.8309,24.042927,329.0,NaN,6.48,8.5,328.0,21 / 21,242092,2020-03-19 18:49:27:395
14.949395,-5.525817,5.865794,8.0,49.8309,24.042927,329.0,NaN,6.48,8.5,328.0,21 / 21,242592,2020-03-19 18:49:27:895
8.695741,-6.287173,-0.507571,8.0,49.8309,24.042927,329.0,NaN,6.48,8.5,328.0,21 / 21,243092,2020-03-19 18:49:28:395
15.437813,-4.050989,1.479617,8.0,49.8309,24.042927,329.0,NaN,6.48,8.5,328.0,21 / 21,243592,2020-03-19 18:49:28:895
5.200207,-7.43639,2.466028,8.0,49.8309,24.042927,329.0,NaN,6.48,8.5,328.0,21 / 21,244092,2020-03-19 18:49:29:395
13.450625,-4.534618,-0.387861,8.0,49.8309,24.042927,329.0,NaN,6.48,8.5,328.0,21 / 21,244592,2020-03-19 18:49:29:895
6.962339,-8.42759,3.160346,8.0,49.8309,24.042927,329.0,NaN,6.48,8.5,328.0,21 / 21,245092,2020-03-19 18:49:30:395
14.068329,-5.750872,2.935291,8.0,49.8309,24.042927,329.0,NaN,6.48,8.5,328.0,21 / 21,245591,2020-03-19 18:49:30:894
6.153099,-7.211335,0.761356,8.0,49.8309,24.042927,329.0,NaN,6.48,8.5,328.0,21 / 21,246091,2020-03-19 18:49:31:394
4.793192,-2.408567,-1.244985,8.0,49.8309,24.042927,329.0,NaN,6.48,8.5,328.0,21 / 21,246592,2020-03-19 18:49:31:895
4.481946,-3.964798,1.11091,8.0,49.8309,24.042927,329.0,NaN,6.48,8.5,328.0,21 / 21,247092,2020-03-19 18:49:32:395
11.142614,1.321599,-2.06859,8.0,49.8309,24.042927,329.0,NaN,6.48,8.5,328.0,21 / 21,247591,2020-03-19 18:49:32:894
8.082825,-5.861006,3.414132,8.0,49.8309,24.042927,329.0,NaN,6.48,8.5,328.0,21 / 21,248091,2020-03-19 18:49:33:394
4.424485,-0.608127,-1.972822,8.0,49.8309,24.042927,329.0,NaN,6.48,8.5,328.0,21 / 21,248591,2020-03-19 18:49:33:894
5.57849,-2.437297,-0.095768,8.0,49.8309,24.042927,329.0,NaN,6.48,8.5,328.0,21 / 21,249091,2020-03-19 18:49:34:394
7.16824,0.794875,-1.244985,8.0,49.8309,24.042927,329.0,NaN,6.48,8.5,328.0,21 / 21,249591,2020-03-19 18:49:34:894
10.922348,-4.328717,1.651999,8.0,49.8309,24.042927,329.0,NaN,6.48,8.5,328.0,21 / 21,250091,2020-03-19 18:49:35:394
9.514558,-8.015787,1.857901,8.0,49.8309,24.042927,329.0,NaN,6.48,8.5,328.0,21 / 21,250591,2020-03-19 18:49:35:894
15.50485,-4.510676,-0.263362,8.0,49.8309,24.042927,329.0,NaN,6.48,8.5,328.0,21 / 21,251092,2020-03-19 18:49:36:395
6.272809,-6.722918,2.360683,8.0,49.8309,24.042927,329.0,NaN,6.48,8.5,328.0,21 / 21,251591,2020-03-19 18:49:36:894
8.647857,-4.979939,1.824382,8.0,49.8309,24.042927,329.0,NaN,6.48,8.5,328.0,21 / 21,252091,2020-03-19 18:49:37:394
5.674258,-4.683058,0.062249,8.0,49.8309,24.042927,329.0,NaN,6.48,8.5,328.0,21 / 21,252591,2020-03-19 18:49:37:894
4.874595,-0.770933,-1.833958,8.0,49.8309,24.042927,329.0,NaN,6.48,8.5,328.0,21 / 21,253092,2020-03-19 18:49:38:395
6.0286,-6.478709,0.392649,8.0,49.8309,24.042927,329.0,NaN,6.48,8.5,328.0,21 / 21,253592,2020-03-19 18:49:38:895
9.844957,-3.62961,1.393425,8.0,49.8309,24.042927,329.0,NaN,6.48,8.5,328.0,21 / 21,254092,2020-03-19 18:49:39:395
6.789956,-6.679823,2.422932,8.0,49.8309,24.042927,329.0,NaN,6.48,8.5,328.0,21 / 21,254592,2020-03-19 18:49:39:895
5.262456,-0.167594,-1.034295,8.0,49.8309,24.042927,329.0,NaN,6.48,8.5,328.0,21 / 21,255092,2020-03-19 18:49:40:395
5.286398,-3.198653,-0.68953,8.0,49.8309,24.042927,329.0,NaN,6.48,8.5,328.0,21 / 21,255591,2020-03-19 18:49:40:894
10.477027,-3.960009,0.402226,8.0,49.8309,24.042927,329.0,NaN,6.48,8.5,328.0,21 / 21,256091,2020-03-19 18:49:41:394
11.310209,-6.83784,0.057461,8.0,49.8309,24.042927,329.0,NaN,6.48,8.5,328.0,21 / 21,256591,2020-03-19 18:49:41:894
8.815451,-7.790732,3.241749,8.0,49.8309,24.042927,329.0,NaN,6.48,8.5,328.0,21 / 21,257091,2020-03-19 18:49:42:394
11.741165,-7.570465,1.383849,8.0,49.8309,24.042927,329.0,NaN,6.48,8.5,328.0,21 / 21,257591,2020-03-19 18:49:42:894
11.889606,-6.885724,4.304775,8.0,49.8309,24.042927,329.0,NaN,6.48,8.5,328.0,21 / 21,258091,2020-03-19 18:49:43:394
17.645266,-5.463568,2.030283,8.0,49.8309,24.042927,329.0,NaN,6.48,8.5,328.0,21 / 21,258591,2020-03-19 18:49:43:894
7.867347,-6.588843,0.857124,8.0,49.8309,24.042927,329.0,NaN,6.48,8.5,328.0,21 / 21,259092,2020-03-19 18:49:44:395
8.192958,-6.737283,2.691083,8.0,49.8309,24.042927,329.0,NaN,6.48,8.5,328.0,21 / 21,259592,2020-03-19 18:49:44:895
3.543419,-4.19943,0.665588,8.0,49.8309,24.042927,329.0,NaN,6.48,8.5,328.0,21 / 21,260091,2020-03-19 18:49:45:394
7.273585,0.301669,-1.934515,8.0,49.8309,24.042927,329.0,NaN,6.48,8.5,328.0,21 / 21,260591,2020-03-19 18:49:45:894
6.531382,-3.485957,1.101333,8.0,49.8309,24.042927,329.0,NaN,6.48,8.5,328.0,21 / 21,261091,2020-03-19 18:49:46:394
12.440272,-3.821146,-1.086968,8.0,49.8309,24.042927,329.0,NaN,6.48,8.5,328.0,21 / 21,261591,2020-03-19 18:49:46:894
4.778827,-3.098097,1.848324,8.0,49.8309,24.042927,329.0,NaN,6.48,8.5,328.0,21 / 21,262091,2020-03-19 18:49:47:394
10.979809,1.173159,-2.504335,8.0,49.8309,24.042927,329.0,NaN,6.48,8.5,328.0,21 / 21,262591,2020-03-19 18:49:47:894
8.394072,-2.863465,1.675941,8.0,49.8309,24.042927,329.0,NaN,6.48,8.5,328.0,21 / 21,263091,2020-03-19 18:49:48:394
13.867216,-4.922478,-0.833182,8.0,49.8309,24.042927,329.0,NaN,6.48,8.5,328.0,21 / 21,263591,2020-03-19 18:49:48:894
14.259866,-3.572149,1.47004,8.0,49.8309,24.042927,329.0,NaN,6.48,8.5,328.0,21 / 21,264091,2020-03-19 18:49:49:394
10.582372,-10.204087,0.703895,8.0,49.8309,24.042927,329.0,NaN,6.48,8.5,328.0,21 / 21,264591,2020-03-19 18:49:49:894
14.973337,-1.968034,2.245761,8.0,49.8309,24.042927,329.0,NaN,6.48,8.5,328.0,21 / 21,265092,2020-03-19 18:49:50:395
6.986281,-6.253655,1.541866,8.0,49.8309,24.042927,329.0,NaN,6.48,8.5,328.0,21 / 21,265592,2020-03-19 18:49:50:895
7.690176,-2.48997,0.086191,8.0,49.8309,24.042927,329.0,NaN,6.48,8.5,328.0,21 / 21,266091,2020-03-19 18:49:51:394
8.451532,-5.81791,2.126051,8.0,49.8309,24.042927,329.0,NaN,6.48,8.5,328.0,21 / 21,266592,2020-03-19 18:49:51:895
12.622231,-2.135628,-0.134075,8.0,49.8309,24.042927,329.0,NaN,6.48,8.5,328.0,21 / 21,267091,2020-03-19 18:49:52:394
4.151546,-4.209007,-0.095768,8.0,49.8309,24.042927,329.0,NaN,6.48,8.5,328.0,21 / 21,267591,2020-03-19 18:49:52:894
6.042965,0.92895,-1.067814,8.0,49.8309,24.042927,329.0,NaN,6.48,8.5,328.0,21 / 21,268092,2020-03-19 18:49:53:395
5.60722,-1.651999,0.430956,8.0,49.8309,24.042927,329.0,NaN,6.48,8.5,328.0,21 / 21,268592,2020-03-19 18:49:53:895
10.333375,1.786075,-3.715801,8.0,49.8309,24.042927,329.0,NaN,6.48,8.5,328.0,21 / 21,269092,2020-03-19 18:49:54:395
11.45865,-6.277597,2.025495,8.0,49.8309,24.042927,329.0,NaN,6.48,8.5,328.0,21 / 21,269592,2020-03-19 18:49:54:895
15.456966,-3.902549,3.859453,8.0,49.8309,24.042927,329.0,NaN,6.48,8.5,328.0,21 / 21,270092,2020-03-19 18:49:55:395
14.863204,-4.67827,1.11091,8.0,49.8309,24.042927,329.0,NaN,6.48,8.5,328.0,21 / 21,270591,2020-03-19 18:49:55:894
14.437037,-4.668693,1.211466,8.0,49.8309,24.042927,329.0,NaN,6.48,8.5,328.0,21 / 21,271091,2020-03-19 18:49:56:394
14.159308,-4.625597,1.733402,8.0,49.8309,24.042927,329.0,NaN,6.48,8.5,328.0,21 / 21,271592,2020-03-19 18:49:56:895
12.109872,-7.671022,1.077391,8.0,49.8309,24.042927,329.0,NaN,6.48,8.5,328.0,21 / 21,272092,2020-03-19 18:49:57:395
15.911864,-2.48997,1.819593,8.0,49.8309,24.042927,329.0,NaN,6.48,8.5,328.0,21 / 21,272592,2020-03-19 18:49:57:895
7.158664,-4.405331,0.852336,8.0,49.8309,24.042927,329.0,NaN,6.48,8.5,328.0,21 / 21,273092,2020-03-19 18:49:58:395
9.662998,-1.359906,0.593762,8.0,49.8309,24.042927,329.0,NaN,6.48,8.5,328.0,21 / 21,273591,2020-03-19 18:49:58:894
4.486734,-2.513912,0.488417,8.0,49.8309,24.042927,329.0,NaN,6.48,8.5,328.0,21 / 21,274091,2020-03-19 18:49:59:394
6.665458,0.56982,-0.761356,8.0,49.8309,24.042927,329.0,NaN,6.48,8.5,328.0,21 / 21,274591,2020-03-19 18:49:59:894
4.869807,-2.767697,-0.268151,8.0,49.8309,24.042927,329.0,NaN,6.48,8.5,328.0,21 / 21,275091,2020-03-19 18:50:00:394
6.004658,-0.234632,-2.786851,8.0,49.8309,24.042927,329.0,NaN,6.48,8.5,328.0,21 / 21,275591,2020-03-19 18:50:00:894
7.019799,-2.461239,1.35033,8.0,49.8309,24.042927,329.0,NaN,6.48,8.5,328.0,21 / 21,276091,2020-03-19 18:50:01:394
12.310986,-2.695871,-1.58975,8.0,49.8309,24.042927,329.0,NaN,6.48,8.5,328.0,21 / 21,276592,2020-03-19 18:50:01:895
13.086706,-5.190629,0.823605,8.0,49.8309,24.042927,329.0,NaN,6.48,8.5,328.0,21 / 21,277092,2020-03-19 18:50:02:395
9.217676,-7.848193,0.794875,8.0,49.8309,24.042927,329.0,NaN,6.48,8.5,328.0,21 / 21,277591,2020-03-19 18:50:02:894
15.935806,-3.356671,-0.407014,8.0,49.8309,24.042927,329.0,NaN,6.48,8.5,328.0,21 / 21,278091,2020-03-19 18:50:03:394
7.608773,-5.161899,0.967258,8.0,49.8309,24.042927,329.0,NaN,6.48,8.5,328.0,21 / 21,278591,2020-03-19 18:50:03:894
14.566323,-5.166687,-0.067038,8.0,49.8309,24.042927,329.0,NaN,6.48,8.5,328.0,21 / 21,279091,2020-03-19 18:50:04:394
9.227253,-5.803545,2.375048,8.0,49.8309,24.042927,329.0,NaN,6.48,8.5,328.0,21 / 21,279591,2020-03-19 18:50:04:894
10.716447,-2.719813,0.220267,8.0,49.8309,24.042927,329.0,NaN,6.48,8.5,328.0,21 / 21,280091,2020-03-19 18:50:05:394
3.964798,-3.490746,0.134075,8.0,49.8309,24.042927,329.0,NaN,6.48,8.5,328.0,21 / 21,280591,2020-03-19 18:50:05:894
5.918467,-0.459687,-1.68073,8.0,49.8309,24.042927,329.0,NaN,6.48,8.5,328.0,21 / 21,281092,2020-03-19 18:50:06:395
6.306328,-0.708684,0.047884,8.0,49.8309,24.042927,329.0,NaN,6.48,8.5,328.0,21 / 21,281591,2020-03-19 18:50:06:894
10.644621,-1.043872,-0.258574,8.0,49.8309,24.042927,329.0,NaN,6.48,8.5,328.0,21 / 21,282091,2020-03-19 18:50:07:394
12.129025,-7.292738,2.063802,8.0,49.8309,24.042927,329.0,NaN,6.48,8.5,328.0,21 / 21,282592,2020-03-19 18:50:07:895
8.283938,0.488417,-1.513135,8.0,49.8309,24.042927,329.0,NaN,6.48,8.5,328.0,21 / 21,283091,2020-03-19 18:50:08:394
8.690952,-3.696647,1.182736,8.0,49.8309,24.042927,329.0,NaN,6.48,8.5,328.0,21 / 21,283591,2020-03-19 18:50:08:894
14.020445,-5.57849,-0.272939,8.0,49.8309,24.042927,329.0,NaN,6.48,8.5,328.0,21 / 21,284091,2020-03-19 18:50:09:394
14.561535,-4.232949,0.474052,8.0,49.8309,24.042927,329.0,NaN,6.48,8.5,328.0,21 / 21,284591,2020-03-19 18:50:09:894
8.724471,-8.197746,1.575385,8.0,49.8309,24.042927,329.0,NaN,6.48,8.5,328.0,21 / 21,285092,2020-03-19 18:50:10:395
13.22557,-4.309563,3.078944,8.0,49.8309,24.042927,329.0,NaN,6.48,8.5,328.0,21 / 21,285592,2020-03-19 18:50:10:895
6.833052,-5.540182,1.431733,8.0,49.8309,24.042927,329.0,NaN,6.48,8.5,328.0,21 / 21,286092,2020-03-19 18:50:11:395
10.299856,-0.363919,-0.981623,8.0,49.8309,24.042927,329.0,NaN,6.48,8.5,328.0,21 / 21,286592,2020-03-19 18:50:11:895
7.872135,-7.086837,2.37026,8.0,49.8309,24.042927,329.0,NaN,6.48,8.5,328.0,21 / 21,287092,2020-03-19 18:50:12:395
16.73547,-1.034295,-0.124498,8.0,49.8309,24.042927,329.0,NaN,6.48,8.5,328.0,21 / 21,287592,2020-03-19 18:50:12:895
8.034941,-5.161899,2.786851,8.0,49.8309,24.042927,329.0,NaN,6.48,8.5,328.0,21 / 21,288092,2020-03-19 18:50:13:395
6.627151,-0.799663,0.009577,8.0,49.8309,24.042927,329.0,NaN,6.48,8.5,328.0,21 / 21,288592,2020-03-19 18:50:13:895
5.21936,-2.619257,-0.043096,8.0,49.8309,24.042927,329.0,NaN,6.48,8.5,328.0,21 / 21,289091,2020-03-19 18:50:14:394
9.586384,0.770933,0.292093,8.0,49.8309,24.042927,329.0,NaN,6.48,8.5,328.0,21 / 21,289591,2020-03-19 18:50:14:894
9.217676,-5.300762,2.925715,8.0,49.8309,24.042927,329.0,NaN,6.48,8.5,328.0,21 / 21,290091,2020-03-19 18:50:15:394
13.94383,-6.05733,2.777274,8.0,49.8309,24.042927,329.0,NaN,6.48,8.5,328.0,21 / 21,290591,2020-03-19 18:50:15:894
14.355634,-3.078943,1.489194,8.0,49.8309,24.042927,329.0,NaN,6.48,8.5,328.0,21 / 21,291092,2020-03-19 18:50:16:395
13.709199,-2.48997,1.034295,8.0,49.8309,24.042927,329.0,NaN,6.48,8.5,328.0,21 / 21,291591,2020-03-19 18:50:16:894
12.191275,-6.287173,2.523489,8.0,49.8309,24.042927,329.0,NaN,6.48,8.5,328.0,21 / 21,292091,2020-03-19 18:50:17:394
10.510546,-5.406107,3.462016,8.0,49.8309,24.042927,329.0,NaN,6.48,8.5,328.0,21 / 21,292591,2020-03-19 18:50:17:894
15.231912,-4.395754,2.949657,8.0,49.8309,24.042927,329.0,NaN,6.48,8.5,328.0,21 / 21,293091,2020-03-19 18:50:18:394
9.993398,-5.592855,2.499547,8.0,49.8309,24.042927,329.0,NaN,6.48,8.5,328.0,21 / 21,293591,2020-03-19 18:50:18:894
9.696517,-3.069367,0.181959,8.0,49.8309,24.042927,329.0,NaN,6.48,8.5,328.0,0 / 0,294091,2020-03-19 18:50:19:394
4.534618,-2.695871,-0.497994,8.0,49.8309,24.042927,329.0,NaN,6.48,8.5,328.0,0 / 1,294591,2020-03-19 18:50:19:894
5.286398,-0.368707,0.09098,8.0,49.8309,24.042927,329.0,NaN,6.48,8.5,328.0,0 / 1,295092,2020-03-19 18:50:20:395
4.285621,-4.247314,0.804452,8.0,49.8309,24.042927,329.0,NaN,6.48,8.5,328.0,0 / 6,295591,2020-03-19 18:50:20:894
5.142745,-1.40779,0.229843,8.0,49.8309,24.042927,329.0,NaN,6.48,8.5,328.0,0 / 6,296091,2020-03-19 18:50:21:394
5.631162,-2.485181,0.957681,8.0,49.8309,24.042927,329.0,NaN,6.48,8.5,328.0,0 / 14,296591,2020-03-19 18:50:21:894
11.262324,-0.603339,-1.675941,8.0,49.8309,24.042927,329.0,NaN,6.48,8.5,328.0,0 / 14,297091,2020-03-19 18:50:22:394
11.48738,-7.331045,1.704672,8.0,49.831894,24.041813,337.0,NaN,5.004,21.500002,352.9,10 / 17,297592,2020-03-19 18:50:22:895
12.181698,-6.464344,2.987964,8.0,49.831894,24.041813,337.0,NaN,5.004,21.500002,352.9,10 / 17,298091,2020-03-19 18:50:23:394
14.255077,-4.94642,1.125275,8.0,49.831894,24.041813,337.0,NaN,5.004,21.500002,352.9,10 / 17,298591,2020-03-19 18:50:23:894
10.160992,-6.325481,1.163582,8.0,49.831894,24.041813,337.0,NaN,5.004,21.500002,352.9,10 / 17,299091,2020-03-19 18:50:24:394
14.116213,-4.094085,1.886631,8.0,49.831894,24.041813,337.0,NaN,5.004,21.500002,352.9,10 / 17,299592,2020-03-19 18:50:24:895
10.19451,-4.817134,4.683059,8.0,49.831894,24.041813,337.0,NaN,5.004,21.500002,352.9,10 / 17,300091,2020-03-19 18:50:25:394
15.08347,-6.028599,1.915361,8.0,49.831894,24.041813,337.0,NaN,5.004,21.500002,352.9,10 / 17,300592,2020-03-19 18:50:25:895
8.073248,-5.875371,2.145205,8.0,49.831894,24.041813,337.0,NaN,5.004,21.500002,352.9,10 / 17,301092,2020-03-19 18:50:26:395
9.404425,-4.055777,-0.004788,8.0,49.831894,24.041813,337.0,NaN,5.004,21.500002,352.9,10 / 17,301591,2020-03-19 18:50:26:894
7.795521,-4.074931,-0.138864,8.0,49.831894,24.041813,337.0,NaN,5.004,21.500002,352.9,10 / 17,302091,2020-03-19 18:50:27:394
6.320693,-2.202665,-1.699883,8.0,49.831894,24.041813,337.0,NaN,5.004,21.500002,352.9,10 / 17,302591,2020-03-19 18:50:27:894
6.042965,-2.035071,-1.94888,8.0,49.831894,24.041813,337.0,NaN,5.004,21.500002,352.9,10 / 17,303092,2020-03-19 18:50:28:395
11.291056,-1.053449,-1.824382,8.0,49.831894,24.041813,337.0,NaN,5.004,21.500002,352.9,10 / 17,303591,2020-03-19 18:50:28:894
4.582502,-3.074155,-0.751779,8.0,49.831894,24.041813,337.0,NaN,5.004,21.500002,352.9,10 / 17,304092,2020-03-19 18:50:29:395
5.272033,-0.430956,-1.302446,8.0,49.831894,24.041813,337.0,NaN,5.004,21.500002,352.9,10 / 17,304592,2020-03-19 18:50:29:895
7.522582,-3.098097,0.263362,8.0,49.831894,24.041813,337.0,NaN,5.004,21.500002,352.9,10 / 17,305092,2020-03-19 18:50:30:395
11.21444,-0.866701,-3.213019,8.0,49.831894,24.041813,337.0,NaN,5.004,21.500002,352.9,10 / 17,305592,2020-03-19 18:50:30:895
10.654198,-7.833828,1.714248,8.0,49.831894,24.041813,337.0,NaN,5.004,21.500002,352.9,10 / 17,306092,2020-03-19 18:50:31:395
14.288596,-6.421249,4.266468,8.0,49.831894,24.041813,337.0,NaN,5.004,21.500002,352.9,10 / 17,306592,2020-03-19 18:50:31:895
13.177686,-6.473921,0.009577,8.0,49.831894,24.041813,337.0,NaN,5.004,21.500002,352.9,10 / 17,307092,2020-03-19 18:50:32:395
9.873688,-5.544971,0.560243,8.0,49.831894,24.041813,337.0,NaN,5.004,21.500002,352.9,10 / 17,307592,2020-03-19 18:50:32:895
12.847286,-5.765238,0.574608,8.0,49.831894,24.041813,337.0,NaN,5.004,21.500002,352.9,10 / 17,308092,2020-03-19 18:50:33:395
8.973468,-6.742072,-0.081403,8.0,49.831894,24.041813,337.0,NaN,5.004,21.500002,352.9,10 / 17,308591,2020-03-19 18:50:33:894
15.820885,-3.730166,2.619257,8.0,49.831894,24.041813,337.0,NaN,5.004,21.500002,352.9,10 / 17,309091,2020-03-19 18:50:34:394
6.402096,-5.880159,1.503559,8.0,49.831894,24.041813,337.0,NaN,5.004,21.500002,352.9,10 / 17,309592,2020-03-19 18:50:34:895
9.935937,-1.723825,0.646435,8.0,49.831894,24.041813,337.0,NaN,5.004,21.500002,352.9,10 / 17,310092,2020-03-19 18:50:35:395
4.673482,-3.471592,-0.023942,8.0,49.831894,24.041813,337.0,NaN,5.004,21.500002,352.9,10 / 17,310592,2020-03-19 18:50:35:895
6.368577,0.54109,-0.751779,8.0,49.831894,24.041813,337.0,NaN,5.004,21.500002,352.9,10 / 17,311091,2020-03-19 18:50:36:394
8.657434,-2.466028,3.026271,8.0,49.831894,24.041813,337.0,NaN,5.004,21.500002,352.9,10 / 17,311591,2020-03-19 18:50:36:894
0.134075,3.098097,4.759673,8.0,49.831894,24.041813,337.0,NaN,5.004,21.500002,352.9,10 / 17,312091,2020-03-19 18:50:37:394
-5.45878,-0.277727,4.611233,8.0,49.831894,24.041813,337.0,NaN,5.004,21.500002,352.9,10 / 17,312592,2020-03-19 18:50:37:895
-8.724471,-1.264138,2.557007,8.0,49.831894,24.041813,337.0,NaN,5.004,21.500002,352.9,10 / 17,313092,2020-03-19 18:50:38:395
-11.621455,-1.221043,0.852336,8.0,49.831894,24.041813,337.0,NaN,5.004,21.500002,352.9,10 / 17,313592,2020-03-19 18:50:38:895
-16.098612,-2.873042,4.563349,8.0,49.831894,24.041813,337.0,NaN,5.004,21.500002,352.9,10 / 17,314091,2020-03-19 18:50:39:394
-10.544065,-2.801216,4.716578,8.0,49.831894,24.041813,337.0,NaN,5.004,21.500002,352.9,10 / 17,314591,2020-03-19 18:50:39:894
-19.120094,0.536301,5.865794,8.0,49.831894,24.041813,337.0,NaN,5.004,21.500002,352.9,10 / 17,315091,2020-03-19 18:50:40:394
-6.325481,-2.94008,5.032612,8.0,49.831894,24.041813,337.0,NaN,5.004,21.500002,352.9,10 / 17,315594,2020-03-19 18:50:40:897
-17.425,0.565032,5.343858,8.0,49.831894,24.041813,337.0,NaN,5.004,21.500002,352.9,10 / 17,316091,2020-03-19 18:50:41:394
-6.411672,-4.213795,1.101333,8.0,49.831894,24.041813,337.0,NaN,5.004,21.500002,352.9,10 / 17,316591,2020-03-19 18:50:41:894
-19.10094,3.040636,5.200207,8.0,49.831894,24.041813,337.0,NaN,5.004,21.500002,352.9,10 / 17,317092,2020-03-19 18:50:42:395
-8.020575,-3.160346,0.732626,8.0,49.831894,24.041813,337.0,NaN,5.004,21.500002,352.9,10 / 17,317591,2020-03-19 18:50:42:894
-2.844312,3.08852,5.013459,8.0,49.831894,24.041813,337.0,NaN,5.004,21.500002,352.9,10 / 17,318092,2020-03-19 18:50:43:395
-7.321469,-1.474828,-0.316035,8.0,49.831894,24.041813,337.0,NaN,5.004,21.500002,352.9,10 / 17,318591,2020-03-19 18:50:43:894
-8.121132,1.340753,-4.390966,8.0,49.831894,24.041813,337.0,NaN,5.004,21.500002,352.9,10 / 17,319092,2020-03-19 18:50:44:395
-8.954314,-2.365471,2.446874,8.0,49.831894,24.041813,337.0,NaN,5.004,21.500002,352.9,10 / 17,319591,2020-03-19 18:50:44:894
-7.067683,0.699107,0.349553,8.0,49.831894,24.041813,337.0,NaN,5.004,21.500002,352.9,10 / 17,320091,2020-03-19 18:50:45:394
-7.115567,-2.466028,3.519477,8.0,49.831894,24.041813,337.0,NaN,5.004,21.500002,352.9,10 / 17,320591,2020-03-19 18:50:45:894
-16.859968,-0.952892,1.249773,8.0,49.831894,24.041813,337.0,NaN,5.004,21.500002,352.9,10 / 17,321091,2020-03-19 18:50:46:394
-13.76666,-2.466028,3.131616,8.0,49.831894,24.041813,337.0,NaN,5.004,21.500002,352.9,10 / 17,321591,2020-03-19 18:50:46:894
-14.513651,-2.260126,2.834735,8.0,49.831894,24.041813,337.0,NaN,5.004,21.500002,352.9,10 / 17,322091,2020-03-19 18:50:47:394
-20.111294,-3.035848,6.574478,8.0,49.831894,24.041813,337.0,NaN,5.004,21.500002,352.9,10 / 17,322591,2020-03-19 18:50:47:894
-12.315774,0.129287,-0.306458,8.0,49.831894,24.041813,337.0,NaN,5.004,21.500002,352.9,10 / 17,323092,2020-03-19 18:50:48:395
-16.333244,-0.469264,3.308787,8.0,49.831894,24.041813,337.0,NaN,5.004,21.500002,352.9,10 / 17,323591,2020-03-19 18:50:48:894
-8.480263,-0.138864,-1.053449,8.0,49.831894,24.041813,337.0,NaN,5.004,21.500002,352.9,10 / 17,324091,2020-03-19 18:50:49:394
-6.962338,-1.690306,3.155558,8.0,49.831894,24.041813,337.0,NaN,5.004,21.500002,352.9,10 / 17,324591,2020-03-19 18:50:49:894
-9.849746,0.244209,-2.116474,8.0,49.831894,24.041813,337.0,NaN,5.004,21.500002,352.9,10 / 17,325091,2020-03-19 18:50:50:394
-13.656527,-1.968034,2.734178,8.0,49.831894,24.041813,337.0,NaN,5.004,21.500002,352.9,10 / 17,325591,2020-03-19 18:50:50:894
-13.259089,-2.173935,4.046201,8.0,49.831894,24.041813,337.0,NaN,5.004,21.500002,352.9,10 / 17,326091,2020-03-19 18:50:51:394
-16.290148,2.341529,6.359,8.0,49.831894,24.041813,337.0,NaN,5.004,21.500002,352.9,10 / 17,326591,2020-03-19 18:50:51:894
-9.481039,-3.883395,1.47004,8.0,49.831894,24.041813,337.0,NaN,5.004,21.500002,352.9,10 / 17,327091,2020-03-19 18:50:52:394
-20.025103,4.055778,1.752556,8.0,49.831894,24.041813,337.0,NaN,5.004,21.500002,352.9,10 / 17,327591,2020-03-19 18:50:52:894
-7.809886,-2.1883,0.368707,8.0,49.831894,24.041813,337.0,NaN,5.004,21.500002,352.9,10 / 17,328091,2020-03-19 18:50:53:394
-19.88624,3.035848,2.676718,8.0,49.831894,24.041813,337.0,NaN,5.004,21.500002,352.9,10 / 17,328591,2020-03-19 18:50:53:894
-10.639832,-2.346318,0.306458,8.0,49.831894,24.041813,337.0,NaN,5.004,21.500002,352.9,10 / 17,329091,2020-03-19 18:50:54:394
-15.112201,1.991976,4.003105,8.0,49.831894,24.041813,337.0,NaN,5.004,21.500002,352.9,10 / 17,329591,2020-03-19 18:50:54:894
-6.196194,-2.662352,0.253785,8.0,49.831894,24.041813,337.0,NaN,5.004,21.500002,352.9,10 / 17,330091,2020-03-19 18:50:55:394
-6.794744,0.550666,-0.814029,8.0,49.831894,24.041813,337.0,NaN,5.004,21.500002,352.9,10 / 17,330592,2020-03-19 18:50:55:895
-5.81791,-2.126051,2.092532,8.0,49.831894,24.041813,337.0,NaN,5.004,21.500002,352.9,10 / 17,331091,2020-03-19 18:50:56:394
-7.690176,1.80044,-1.16837,8.0,49.831894,24.041813,337.0,NaN,5.004,21.500002,352.9,10 / 17,331592,2020-03-19 18:50:56:895
-10.362105,-1.015141,3.045425,8.0,49.831894,24.041813,337.0,NaN,5.004,21.500002,352.9,10 / 17,332091,2020-03-19 18:50:57:394
-4.122815,0.871489,-0.124498,8.0,49.831894,24.041813,337.0,NaN,5.004,21.500002,352.9,10 / 17,332591,2020-03-19 18:50:57:894
-6.952761,-0.636858,1.838747,8.0,49.831894,24.041813,337.0,NaN,5.004,21.500002,352.9,10 / 17,333092,2020-03-19 18:50:58:395
-9.586384,0.794875,-0.124498,8.0,49.831894,24.041813,337.0,NaN,5.004,21.500002,352.9,10 / 17,333591,2020-03-19 18:50:58:894
-11.305421,-0.373495,3.902549,8.0,49.831894,24.041813,337.0,NaN,5.004,21.500002,352.9,10 / 17,334091,2020-03-19 18:50:59:394
-13.493721,-1.805228,4.606444,8.0,49.831894,24.041813,337.0,NaN,5.004,21.500002,352.9,10 / 17,334591,2020-03-19 18:50:59:894
-16.031574,0.019154,2.217031,8.0,49.831894,24.041813,337.0,NaN,5.004,21.500002,352.9,10 / 17,335091,2020-03-19 18:51:00:394
-10.43872,-3.035848,1.503559,8.0,49.831894,24.041813,337.0,NaN,5.004,21.500002,352.9,10 / 17,335591,2020-03-19 18:51:00:894
-17.640478,1.364695,3.529053,8.0,49.831894,24.041813,337.0,NaN,5.004,21.500002,352.9,10 / 17,336092,2020-03-19 18:51:01:395
-8.465898,-2.293645,1.881843,8.0,49.831894,24.041813,337.0,NaN,5.004,21.500002,352.9,10 / 17,336592,2020-03-19 18:51:01:895
-17.396269,1.340753,3.126828,8.0,49.831894,24.041813,337.0,NaN,5.004,21.500002,352.9,10 / 17,337091,2020-03-19 18:51:02:394
-9.557653,-2.75812,1.541866,8.0,49.831894,24.041813,337.0,NaN,5.004,21.500002,352.9,10 / 17,337591,2020-03-19 18:51:02:894
-15.389929,1.331176,2.020706,8.0,49.831894,24.041813,337.0,NaN,5.004,21.500002,352.9,10 / 17,338091,2020-03-19 18:51:03:394
-6.449979,-2.336741,0.335188,8.0,49.831894,24.041813,337.0,NaN,5.004,21.500002,352.9,10 / 17,338591,2020-03-19 18:51:03:894
-6.842628,1.101333,-0.474052,8.0,49.831894,24.041813,337.0,NaN,5.004,21.500002,352.9,10 / 17,339091,2020-03-19 18:51:04:394
-4.984728,-1.484405,1.005565,8.0,49.831894,24.041813,337.0,NaN,5.004,21.500002,352.9,10 / 17,339591,2020-03-19 18:51:04:894
-7.216124,1.393425,-0.866701,8.0,49.831894,24.041813,337.0,NaN,5.004,21.500002,352.9,10 / 17,340091,2020-03-19 18:51:05:394
-8.145074,-0.943315,2.221819,8.0,49.831894,24.041813,337.0,NaN,5.004,21.500002,352.9,10 / 17,340591,2020-03-19 18:51:05:894
-5.554548,0.804452,-1.249773,8.0,49.831894,24.041813,337.0,NaN,5.004,21.500002,352.9,10 / 17,341091,2020-03-19 18:51:06:394
-5.525817,-1.264138,2.355895,8.0,49.831894,24.041813,337.0,NaN,5.004,21.500002,352.9,10 / 17,341591,2020-03-19 18:51:06:894
-8.556877,1.522712,-0.54109,8.0,49.831894,24.041813,337.0,NaN,5.004,21.500002,352.9,10 / 17,342091,2020-03-19 18:51:07:394
-9.935937,-0.766144,3.193865,8.0,49.831894,24.041813,337.0,NaN,5.004,21.500002,352.9,10 / 17,342592,2020-03-19 18:51:07:895
-13.9151,-1.594538,3.414132,8.0,49.831894,24.041813,337.0,NaN,5.004,21.500002,352.9,10 / 17,343091,2020-03-19 18:51:08:394
-14.542381,0.703895,3.160346,8.0,49.831894,24.041813,337.0,NaN,5.004,21.500002,352.9,10 / 17,343591,2020-03-19 18:51:08:894
-10.658986,-2.049437,1.240197,8.0,49.831894,24.041813,337.0,NaN,5.004,21.500002,352.9,10 / 17,344091,2020-03-19 18:51:09:394
-20.03468,2.839523,-0.282516,8.0,49.831894,24.041813,337.0,NaN,5.004,21.500002,352.9,10 / 17,344591,2020-03-19 18:51:09:894
-11.377247,-0.512359,1.412579,8.0,49.831894,24.041813,337.0,NaN,5.004,21.500002,352.9,10 / 17,345091,2020-03-19 18:51:10:394
-16.103401,0.014365,6.258444,8.0,49.831894,24.041813,337.0,NaN,5.004,21.500002,352.9,10 / 17,345591,2020-03-19 18:51:10:894
-9.155427,-1.608903,1.584962,8.0,49.831894,24.041813,337.0,NaN,5.004,21.500002,352.9,10 / 17,346091,2020-03-19 18:51:11:394
-13.857639,2.485181,0.718261,8.0,49.831894,24.041813,337.0,NaN,5.004,21.500002,352.9,10 / 17,346591,2020-03-19 18:51:11:894
-6.703765,-1.551443,0.861913,8.0,49.831894,24.041813,337.0,NaN,5.004,21.500002,352.9,10 / 17,347091,2020-03-19 18:51:12:394
-5.315128,0.627281,-0.225055,8.0,49.831894,24.041813,337.0,NaN,5.004,21.500002,352.9,10 / 17,347591,2020-03-19 18:51:12:894
-7.302315,-0.512359,1.426944,8.0,49.831894,24.041813,337.0,NaN,5.004,21.500002,352.9,10 / 17,348091,2020-03-19 18:51:13:394
-14.901511,1.704672,0.215478,8.0,49.831894,24.041813,337.0,NaN,5.004,21.500002,352.9,10 / 17,348591,2020-03-19 18:51:13:894
-6.081272,-0.608127,0.565032,8.0,49.831894,24.041813,337.0,NaN,5.004,21.500002,352.9,10 / 17,349091,2020-03-19 18:51:14:394
-9.41879,3.203442,-3.481169,8.0,49.831894,24.041813,337.0,NaN,5.004,21.500002,352.9,10 / 17,349591,2020-03-19 18:51:14:894
-11.468226,1.565808,2.676718,8.0,49.831894,24.041813,337.0,NaN,5.004,21.500002,352.9,10 / 17,350091,2020-03-19 18:51:15:394
-12.550406,0.153229,-0.21069,8.0,49.831894,24.041813,337.0,NaN,5.004,21.500002,352.9,10 / 17,350591,2020-03-19 18:51:15:894
-16.237476,2.27928,1.584962,8.0,49.831894,24.041813,337.0,NaN,5.004,21.500002,352.9,10 / 17,351092,2020-03-19 18:51:16:395
-12.047623,0.11971,1.010353,8.0,49.831894,24.041813,337.0,NaN,5.004,21.500002,352.9,10 / 17,351591,2020-03-19 18:51:16:894
-15.342045,2.149993,0.134075,8.0,49.831894,24.041813,337.0,NaN,5.004,21.500002,352.9,10 / 17,352091,2020-03-19 18:51:17:394
-6.406883,-1.297657,-1.383848,8.0,49.831894,24.041813,337.0,NaN,5.004,21.500002,352.9,10 / 17,352592,2020-03-19 18:51:17:895
-15.993267,3.423709,2.762909,8.0,49.831894,24.041813,337.0,NaN,5.004,21.500002,352.9,10 / 17,353092,2020-03-19 18:51:18:395
-3.663128,-2.317587,-2.020706,8.0,49.831894,24.041813,337.0,NaN,5.004,21.500002,352.9,10 / 17,353592,2020-03-19 18:51:18:895
-7.005434,0.995988,1.422156,8.0,49.831894,24.041813,337.0,NaN,5.004,21.500002,352.9,10 / 17,354092,2020-03-19 18:51:19:395
-7.331045,-0.186748,1.154005,8.0,49.831894,24.041813,337.0,NaN,5.004,21.500002,352.9,10 / 17,354592,2020-03-19 18:51:19:895
-12.708423,0.565032,-0.962469,8.0,49.831894,24.041813,337.0,NaN,5.004,21.500002,352.9,10 / 17,355091,2020-03-19 18:51:20:394
-13.862428,0.373495,2.245761,8.0,49.831894,24.041813,337.0,NaN,5.004,21.500002,352.9,10 / 17,355591,2020-03-19 18:51:20:894
-12.08593,-0.814029,-0.110133,8.0,49.831894,24.041813,337.0,NaN,5.004,21.500002,352.9,10 / 17,356091,2020-03-19 18:51:21:394
-15.514427,3.074155,0.555455,8.0,49.831894,24.041813,337.0,NaN,5.004,21.500002,352.9,10 / 17,356591,2020-03-19 18:51:21:894
-8.920795,-0.138864,0.92895,8.0,49.831894,24.041813,337.0,NaN,5.004,21.500002,352.9,10 / 17,357091,2020-03-19 18:51:22:394
-17.27656,1.249773,1.661576,8.0,49.831894,24.041813,337.0,NaN,5.004,21.500002,352.9,10 / 17,357591,2020-03-19 18:51:22:894
-8.350976,-1.905785,1.192313,8.0,49.831894,24.041813,337.0,NaN,5.004,21.500002,352.9,10 / 17,358091,2020-03-19 18:51:23:394
-8.116343,-0.038307,1.101333,8.0,49.831894,24.041813,337.0,NaN,5.004,21.500002,352.9,10 / 17,358591,2020-03-19 18:51:23:894
-5.39653,-0.995988,0.885855,8.0,49.831894,24.041813,337.0,NaN,5.004,21.500002,352.9,10 / 17,359091,2020-03-19 18:51:24:394
-6.517017,0.766145,1.015142,8.0,49.831894,24.041813,337.0,NaN,5.004,21.500002,352.9,10 / 17,359592,2020-03-19 18:51:24:895
-10.874464,-0.100556,2.226608,8.0,49.831894,24.041813,337.0,NaN,5.004,21.500002,352.9,10 / 17,360092,2020-03-19 18:51:25:395
-12.804191,-2.260126,2.336741,8.0,49.831894,24.041813,337.0,NaN,5.004,21.500002,352.9,10 / 17,360592,2020-03-19 18:51:25:895
-15.198392,-0.483629,2.691083,8.0,49.831894,24.041813,337.0,NaN,5.004,21.500002,352.9,10 / 17,361092,2020-03-19 18:51:26:395
-15.591042,-1.537077,0.100556,8.0,49.831894,24.041813,337.0,NaN,5.004,21.500002,352.9,10 / 17,361592,2020-03-19 18:51:26:895
-14.686033,-1.704672,4.007894,8.0,49.831894,24.041813,337.0,NaN,5.004,21.500002,352.9,10 / 17,362092,2020-03-19 18:51:27:395
-11.525687,-2.935291,2.442086,8.0,49.831894,24.041813,337.0,NaN,5.004,21.500002,352.9,10 / 17,362591,2020-03-19 18:51:27:894
-16.093824,1.077391,2.590526,8.0,49.831894,24.041813,337.0,NaN,5.004,21.500002,352.9,10 / 17,363091,2020-03-19 18:51:28:394
-6.526593,-2.264915,1.01993,8.0,49.831894,24.041813,337.0,NaN,5.004,21.500002,352.9,10 / 17,363591,2020-03-19 18:51:28:894
-6.153098,0.531513,-0.201113,8.0,49.831894,24.041813,337.0,NaN,5.004,21.500002,352.9,0 / 0,364092,2020-03-19 18:51:29:395
-5.990292,-1.426944,2.346318,8.0,49.831894,24.041813,337.0,NaN,5.004,21.500002,352.9,0 / 0,364591,2020-03-19 18:51:29:894
-10.697293,0.732626,-0.272939,8.0,49.831894,24.041813,337.0,NaN,5.004,21.500002,352.9,0 / 0,365092,2020-03-19 18:51:30:395
-5.746084,-1.613692,2.063802,8.0,49.831894,24.041813,337.0,NaN,5.004,21.500002,352.9,0 / 0,365591,2020-03-19 18:51:30:894
-8.825027,0.177171,-0.201113,8.0,49.831894,24.041813,337.0,NaN,5.004,21.500002,352.9,0 / 4,366091,2020-03-19 18:51:31:394
-12.947843,-3.136404,3.351883,8.0,49.831894,24.041813,337.0,NaN,5.004,21.500002,352.9,0 / 4,366592,2020-03-19 18:51:31:895
-13.101071,-2.288857,1.795651,8.0,49.831894,24.041813,337.0,NaN,5.004,21.500002,352.9,0 / 6,367092,2020-03-19 18:51:32:395
-15.040375,0.009577,2.255338,8.0,49.83225,24.040747,317.0,NaN,7.74,44.5,334.1,6 / 6,367591,2020-03-19 18:51:32:894
-11.291056,-2.8491,0.21069,8.0,49.83225,24.040747,317.0,NaN,7.74,44.5,334.1,6 / 6,368091,2020-03-19 18:51:33:394
-13.464991,-0.023942,1.757344,8.0,49.83225,24.040747,317.0,NaN,7.74,44.5,334.1,6 / 6,368591,2020-03-19 18:51:33:894
-4.582502,-2.106897,0.143652,8.0,49.83225,24.040747,317.0,NaN,7.74,44.5,334.1,6 / 6,369091,2020-03-19 18:51:34:394
-15.638926,1.268927,2.427721,8.0,49.83225,24.040747,317.0,NaN,7.74,44.5,334.1,6 / 6,369591,2020-03-19 18:51:34:894
-7.805097,-2.111686,-0.143652,8.0,49.83225,24.040747,317.0,NaN,7.74,44.5,334.1,6 / 6,370091,2020-03-19 18:51:35:394
-6.244078,0.885855,1.326388,8.0,49.83225,24.040747,317.0,NaN,7.74,44.5,334.1,6 / 6,370591,2020-03-19 18:51:35:894
-7.824251,-1.632845,1.565808,8.0,49.83225,24.040747,317.0,NaN,7.74,44.5,334.1,6 / 6,371092,2020-03-19 18:51:36:395
-11.927913,0.646435,-3.682282,8.0,49.83225,24.040747,317.0,NaN,7.74,44.5,334.1,6 / 6,371592,2020-03-19 18:51:36:895
-13.651738,-2.54743,0.766145,8.0,49.83225,24.040747,317.0,NaN,7.74,44.5,334.1,6 / 6,372091,2020-03-19 18:51:37:394
-12.018892,-1.704672,2.513912,8.0,49.83225,24.040747,317.0,NaN,7.74,44.5,334.1,6 / 6,372592,2020-03-19 18:51:37:895
-14.149732,0.234632,4.817134,8.0,49.83225,24.040747,317.0,NaN,7.74,44.5,334.1,6 / 6,373091,2020-03-19 18:51:38:394
-9.983821,-3.323152,1.968034,8.0,49.83225,24.040747,317.0,NaN,7.74,44.5,334.1,6 / 6,373591,2020-03-19 18:51:38:894
-15.777789,-0.703895,4.189853,8.0,49.83225,24.040747,317.0,NaN,7.74,44.5,334.1,6 / 6,374091,2020-03-19 18:51:39:394
-9.950302,-2.327164,2.571373,8.0,49.83225,24.040747,317.0,NaN,7.74,44.5,334.1,6 / 6,374591,2020-03-19 18:51:39:894
-18.330008,-0.311246,0.339977,8.0,49.83225,24.040747,317.0,NaN,7.74,44.5,334.1,6 / 6,375091,2020-03-19 18:51:40:394
-8.973468,-3.514688,0.885855,8.0,49.83225,24.040747,317.0,NaN,7.74,44.5,334.1,6 / 6,375591,2020-03-19 18:51:40:894
-10.649409,-0.708684,2.13084,8.0,49.83225,24.040747,317.0,NaN,7.74,44.5,334.1,6 / 6,376091,2020-03-19 18:51:41:394
-6.014234,-1.881842,0.708684,8.0,49.83225,24.040747,317.0,NaN,7.74,44.5,334.1,6 / 6,376591,2020-03-19 18:51:41:894
-5.995081,0.713472,-0.80924,8.0,49.83225,24.040747,317.0,NaN,7.74,44.5,334.1,6 / 6,377091,2020-03-19 18:51:42:394
-6.363788,-1.556231,2.901773,8.0,49.83225,24.040747,317.0,NaN,7.74,44.5,334.1,6 / 6,377591,2020-03-19 18:51:42:894
-6.038176,3.1795,5.473145,8.0,49.83225,24.040747,317.0,NaN,7.74,44.5,334.1,6 / 6,378091,2020-03-19 18:51:43:394
-4.386177,-1.374272,0.742203,8.0,49.83225,24.040747,317.0,NaN,7.74,44.5,334.1,6 / 6,378591,2020-03-19 18:51:43:894
-5.453991,1.297657,0.368707,8.0,49.83225,24.040747,317.0,NaN,7.74,44.5,334.1,6 / 6,379091,2020-03-19 18:51:44:394
-6.162675,0.277727,2.829947,8.0,49.83225,24.040747,317.0,NaN,7.74,44.5,334.1,6 / 6,379591,2020-03-19 18:51:44:894
-9.361329,-1.422156,-1.508347,8.0,49.83225,24.040747,317.0,NaN,7.74,44.5,334.1,6 / 6,380091,2020-03-19 18:51:45:394
-17.118542,-2.480393,3.246538,8.0,49.83225,24.040747,317.0,NaN,7.74,44.5,334.1,6 / 6,380591,2020-03-19 18:51:45:894
-11.008539,-1.556231,3.792416,8.0,49.83225,24.040747,317.0,NaN,7.74,44.5,334.1,6 / 6,381091,2020-03-19 18:51:46:394
-19.325996,0.737414,6.335058,8.0,49.83225,24.040747,317.0,NaN,7.74,44.5,334.1,6 / 6,381591,2020-03-19 18:51:46:894
-13.498509,-2.643199,4.237737,8.0,49.83225,24.040747,317.0,NaN,7.74,44.5,334.1,6 / 6,382091,2020-03-19 18:51:47:394
-18.416199,-0.004788,2.341529,8.0,49.83225,24.040747,317.0,NaN,7.74,44.5,334.1,6 / 6,382592,2020-03-19 18:51:47:895
-10.82658,-2.590526,1.642422,8.0,49.83225,24.040747,317.0,NaN,7.74,44.5,334.1,6 / 6,383091,2020-03-19 18:51:48:394
-18.83758,-0.038307,4.228161,8.0,49.83225,24.040747,317.0,NaN,7.74,44.5,334.1,6 / 6,383591,2020-03-19 18:51:48:894
-6.679823,-3.145981,1.192313,8.0,49.83225,24.040747,317.0,NaN,7.74,44.5,334.1,6 / 6,384091,2020-03-19 18:51:49:394
-10.012551,-0.617704,0.790087,8.0,49.83225,24.040747,317.0,NaN,7.74,44.5,334.1,6 / 6,384591,2020-03-19 18:51:49:894
-5.200206,-2.379836,1.316811,8.0,49.83225,24.040747,317.0,NaN,7.74,44.5,334.1,6 / 6,385091,2020-03-19 18:51:50:394
-7.153875,1.944092,1.426944,8.0,49.83225,24.040747,317.0,NaN,7.74,44.5,334.1,6 / 6,385591,2020-03-19 18:51:50:894
-5.602432,-2.604891,0.775721,8.0,49.83225,24.040747,317.0,NaN,7.74,44.5,334.1,6 / 6,386091,2020-03-19 18:51:51:394
-5.81791,0.732626,-1.503559,8.0,49.83225,24.040747,317.0,NaN,7.74,44.5,334.1,6 / 6,386591,2020-03-19 18:51:51:894
-5.334281,-2.298433,3.031059,8.0,49.83225,24.040747,317.0,NaN,7.74,44.5,334.1,6 / 6,387091,2020-03-19 18:51:52:394
-11.176133,1.383849,-2.676717,8.0,49.83225,24.040747,317.0,NaN,7.74,44.5,334.1,6 / 6,387591,2020-03-19 18:51:52:894
-9.974244,-1.359906,0.244209,8.0,49.83225,24.040747,317.0,NaN,7.74,44.5,334.1,6 / 6,388092,2020-03-19 18:51:53:395
-11.626244,-2.322375,5.104438,8.0,49.83225,24.040747,317.0,NaN,7.74,44.5,334.1,6 / 6,388592,2020-03-19 18:51:53:895
-14.374787,-0.354342,2.906561,8.0,49.83225,24.040747,317.0,NaN,7.74,44.5,334.1,6 / 6,389092,2020-03-19 18:51:54:395
-10.386047,-1.465251,3.5099,8.0,49.83225,24.040747,317.0,NaN,7.74,44.5,334.1,6 / 6,389592,2020-03-19 18:51:54:895
-9.935937,-0.905008,0.919373,8.0,49.83225,24.040747,317.0,NaN,7.74,44.5,334.1,6 / 6,390092,2020-03-19 18:51:55:395
-14.590265,-1.321599,1.963245,8.0,49.83225,24.040747,317.0,NaN,7.74,44.5,334.1,6 / 6,390592,2020-03-19 18:51:55:895
-15.916653,1.599327,4.161122,8.0,49.83225,24.040747,317.0,NaN,7.74,44.5,334.1,6 / 6,391092,2020-03-19 18:51:56:395
-8.987833,-2.863465,2.298434,8.0,49.83225,24.040747,317.0,NaN,7.74,44.5,334.1,6 / 6,391591,2020-03-19 18:51:56:894
-20.810402,0.909797,3.634398,8.0,49.83225,24.040747,317.0,NaN,7.74,44.5,334.1,6 / 6,392091,2020-03-19 18:51:57:394
-9.92636,-2.059013,1.398214,8.0,49.83225,24.040747,317.0,NaN,7.74,44.5,334.1,6 / 6,392591,2020-03-19 18:51:57:894
-12.382812,-0.253785,1.742979,8.0,49.83225,24.040747,317.0,NaN,7.74,44.5,334.1,6 / 6,393091,2020-03-19 18:51:58:394
-5.137956,-2.212242,1.493982,8.0,49.83225,24.040747,317.0,NaN,7.74,44.5,334.1,6 / 6,393591,2020-03-19 18:51:58:894
-15.361198,-2.63841,4.606444,8.0,49.83225,24.040747,317.0,NaN,7.74,44.5,334.1,6 / 6,394091,2020-03-19 18:51:59:394
-7.881712,-4.189853,2.193089,8.0,49.83225,24.040747,317.0,NaN,7.74,44.5,334.1,6 / 6,394591,2020-03-19 18:51:59:894
-9.006987,-0.914585,0.828394,8.0,49.83225,24.040747,317.0,NaN,7.74,44.5,334.1,6 / 6,395092,2020-03-19 18:52:00:395
-5.616797,-2.169147,1.417368,8.0,49.83225,24.040747,317.0,NaN,7.74,44.5,334.1,6 / 6,395592,2020-03-19 18:52:00:895
-7.158663,0.383072,-2.5187,8.0,49.83225,24.040747,317.0,NaN,7.74,44.5,334.1,6 / 6,396091,2020-03-19 18:52:01:394
-7.76679,-2.264915,2.662352,8.0,49.83225,24.040747,317.0,NaN,7.74,44.5,334.1,6 / 6,396591,2020-03-19 18:52:01:894
-15.069105,-0.497994,-3.912125,8.0,49.83225,24.040747,317.0,NaN,7.74,44.5,334.1,6 / 6,397091,2020-03-19 18:52:02:394
-16.381128,-1.417367,3.045425,8.0,49.83225,24.040747,317.0,NaN,7.74,44.5,334.1,6 / 6,397591,2020-03-19 18:52:02:894
-9.969456,1.158794,-2.614468,8.0,49.83225,24.040747,317.0,NaN,7.74,44.5,334.1,6 / 6,398092,2020-03-19 18:52:03:395
-12.679692,-1.963245,3.232172,8.0,49.83225,24.040747,317.0,NaN,7.74,44.5,334.1,6 / 6,398592,2020-03-19 18:52:03:895
-13.335704,-2.255338,3.993528,8.0,49.83225,24.040747,317.0,NaN,7.74,44.5,334.1,6 / 6,399091,2020-03-19 18:52:04:394
-17.597382,0.967258,3.423709,8.0,49.83225,24.040747,317.0,NaN,7.74,44.5,334.1,6 / 6,399591,2020-03-19 18:52:04:894
-11.822568,-4.328717,1.426944,8.0,49.83225,24.040747,317.0,NaN,7.74,44.5,334.1,6 / 6,400091,2020-03-19 18:52:05:394
-17.166426,-0.167594,-0.632069,8.0,49.83225,24.040747,317.0,NaN,7.74,44.5,334.1,6 / 6,400591,2020-03-19 18:52:05:894
-5.63595,-2.341529,1.125275,8.0,49.83225,24.040747,317.0,NaN,7.74,44.5,334.1,6 / 6,401091,2020-03-19 18:52:06:394
-7.062895,-0.301669,-0.009577,8.0,49.83225,24.040747,317.0,NaN,7.74,44.5,334.1,6 / 6,401591,2020-03-19 18:52:06:894
-9.739613,-3.045424,1.508347,8.0,49.83225,24.040747,317.0,NaN,7.74,44.5,334.1,6 / 6,402091,2020-03-19 18:52:07:394
-11.171345,0.220267,2.873042,8.0,49.83225,24.040747,317.0,NaN,7.74,44.5,334.1,6 / 6,402591,2020-03-19 18:52:07:894
-5.018246,-2.236184,1.01993,8.0,49.83225,24.040747,317.0,NaN,7.74,44.5,334.1,6 / 6,403091,2020-03-19 18:52:08:394
-7.034164,1.455675,-1.637634,8.0,49.83225,24.040747,317.0,NaN,7.74,44.5,334.1,6 / 6,403591,2020-03-19 18:52:08:894
-5.631162,-1.561019,3.275268,8.0,49.83225,24.040747,317.0,NaN,7.74,44.5,334.1,6 / 6,404091,2020-03-19 18:52:09:394
-9.112331,0.785298,0.521936,8.0,49.83225,24.040747,317.0,NaN,7.74,44.5,334.1,6 / 6,404591,2020-03-19 18:52:09:894
-14.369999,-1.01993,2.485181,8.0,49.83225,24.040747,317.0,NaN,7.74,44.5,334.1,6 / 6,405092,2020-03-19 18:52:10:395
-11.03727,-0.512359,3.476381,8.0,49.83225,24.040747,317.0,NaN,7.74,44.5,334.1,6 / 6,405591,2020-03-19 18:52:10:894
-9.619903,-0.320823,2.341529,8.0,49.83225,24.040747,317.0,NaN,7.74,44.5,334.1,6 / 6,406091,2020-03-19 18:52:11:394
-13.709199,-0.497994,2.595315,8.0,49.83225,24.040747,317.0,NaN,7.74,44.5,334.1,6 / 6,406591,2020-03-19 18:52:11:894
-14.96376,0.062249,3.926491,8.0,49.83225,24.040747,317.0,NaN,7.74,44.5,334.1,6 / 6,407091,2020-03-19 18:52:12:394
-10.108319,-2.355894,1.833959,8.0,49.83225,24.040747,317.0,NaN,7.74,44.5,334.1,6 / 6,407591,2020-03-19 18:52:12:894
-19.88145,1.632846,5.956774,8.0,49.83225,24.040747,317.0,NaN,7.74,44.5,334.1,6 / 6,408091,2020-03-19 18:52:13:394
-11.267113,-0.770933,1.063026,8.0,49.83225,24.040747,317.0,NaN,7.74,44.5,334.1,6 / 6,408591,2020-03-19 18:52:13:894
-10.529699,0.703895,1.244985,8.0,49.83225,24.040747,317.0,NaN,7.74,44.5,334.1,6 / 6,409091,2020-03-19 18:52:14:394
-6.579266,-0.248997,0.493206,8.0,49.83225,24.040747,317.0,NaN,7.74,44.5,334.1,6 / 6,409591,2020-03-19 18:52:14:894
-15.332468,0.062249,3.1795,8.0,49.83225,24.040747,317.0,NaN,7.74,44.5,334.1,6 / 6,410091,2020-03-19 18:52:15:394
-5.530606,-2.044648,1.25935,8.0,49.83225,24.040747,317.0,NaN,7.74,44.5,334.1,6 / 6,410591,2020-03-19 18:52:15:894
-8.207323,1.781286,1.134852,8.0,49.83225,24.040747,317.0,NaN,7.74,44.5,334.1,6 / 6,411091,2020-03-19 18:52:16:394
-5.3678,-1.561019,1.80044,8.0,49.83225,24.040747,317.0,NaN,7.74,44.5,334.1,6 / 6,411591,2020-03-19 18:52:16:894
-6.095637,1.671153,-0.392649,8.0,49.83225,24.040747,317.0,NaN,7.74,44.5,334.1,6 / 6,412091,2020-03-19 18:52:17:394
-6.287173,-0.550666,4.903325,8.0,49.83225,24.040747,317.0,NaN,7.74,44.5,334.1,6 / 6,412592,2020-03-19 18:52:17:895
-11.410766,0.292093,0.588974,8.0,49.83225,24.040747,317.0,NaN,7.74,44.5,334.1,6 / 6,413091,2020-03-19 18:52:18:394
-14.178462,-0.162806,1.939303,8.0,49.83225,24.040747,317.0,NaN,7.74,44.5,334.1,6 / 6,413591,2020-03-19 18:52:18:894
-11.449073,-0.536301,4.932056,8.0,49.83225,24.040747,317.0,NaN,7.74,44.5,334.1,6 / 6,414091,2020-03-19 18:52:19:394
-10.749966,0.565032,1.752556,8.0,49.83225,24.040747,317.0,NaN,7.74,44.5,334.1,6 / 6,414591,2020-03-19 18:52:19:894
-14.077906,-0.852336,0.301669,8.0,49.83225,24.040747,317.0,NaN,7.74,44.5,334.1,6 / 6,415092,2020-03-19 18:52:20:395
-14.738706,-0.201113,3.1795,8.0,49.83225,24.040747,317.0,NaN,7.74,44.5,334.1,6 / 6,415591,2020-03-19 18:52:20:894
-11.496957,-2.662352,2.576161,8.0,49.83225,24.040747,317.0,NaN,7.74,44.5,334.1,6 / 6,416091,2020-03-19 18:52:21:394
-16.357185,0.057461,3.41892,8.0,49.83225,24.040747,317.0,NaN,7.74,44.5,334.1,6 / 6,416592,2020-03-19 18:52:21:895
-9.332599,-2.695871,1.594538,8.0,49.83225,24.040747,317.0,NaN,7.74,44.5,334.1,6 / 6,417092,2020-03-19 18:52:22:395
-10.97502,0.885855,2.595315,8.0,49.83225,24.040747,317.0,NaN,7.74,44.5,334.1,6 / 6,417591,2020-03-19 18:52:22:894
-5.51624,-2.111686,1.661576,8.0,49.83225,24.040747,317.0,NaN,7.74,44.5,334.1,6 / 6,418092,2020-03-19 18:52:23:395
-17.865534,1.94888,3.8403,8.0,49.83225,24.040747,317.0,NaN,7.74,44.5,334.1,6 / 6,418592,2020-03-19 18:52:23:895
-6.813898,-2.451662,1.570596,8.0,49.83225,24.040747,317.0,NaN,7.74,44.5,334.1,6 / 6,419092,2020-03-19 18:52:24:395
-7.398083,0.775721,0.943315,8.0,49.83225,24.040747,317.0,NaN,7.74,44.5,334.1,6 / 6,419591,2020-03-19 18:52:24:894
-5.875371,-1.704672,2.011129,8.0,49.83225,24.040747,317.0,NaN,7.74,44.5,334.1,6 / 6,420091,2020-03-19 18:52:25:394
-7.31668,1.077391,1.632846,8.0,49.83225,24.040747,317.0,NaN,7.74,44.5,334.1,6 / 6,420592,2020-03-19 18:52:25:895
-9.490616,-0.512359,3.289633,8.0,49.83225,24.040747,317.0,NaN,7.74,44.5,334.1,6 / 6,421091,2020-03-19 18:52:26:394
-16.395493,-1.963245,1.848324,8.0,49.83225,24.040747,317.0,NaN,7.74,44.5,334.1,6 / 6,421591,2020-03-19 18:52:26:894
-15.332468,0.766145,5.262456,8.0,49.83225,24.040747,317.0,NaN,7.74,44.5,334.1,6 / 6,422092,2020-03-19 18:52:27:395
-11.013328,0.373495,-1.292869,8.0,49.83225,24.040747,317.0,NaN,7.74,44.5,334.1,6 / 6,422591,2020-03-19 18:52:27:894
-13.024457,-2.025495,2.63841,8.0,49.83225,24.040747,317.0,NaN,7.74,44.5,334.1,6 / 6,423092,2020-03-19 18:52:28:395
-12.124237,-1.283292,3.203442,8.0,49.83225,24.040747,317.0,NaN,7.74,44.5,334.1,6 / 6,423592,2020-03-19 18:52:28:895
-16.381128,1.039084,5.214572,8.0,49.83225,24.040747,317.0,NaN,7.74,44.5,334.1,6 / 6,424092,2020-03-19 18:52:29:395
-10.539276,-1.862689,1.307234,8.0,49.83225,24.040747,317.0,NaN,7.74,44.5,334.1,6 / 6,424592,2020-03-19 18:52:29:895
-16.936583,-0.378284,3.591303,8.0,49.83225,24.040747,317.0,NaN,7.74,44.5,334.1,6 / 6,425092,2020-03-19 18:52:30:395
-8.571242,-2.681506,2.240973,8.0,49.83225,24.040747,317.0,NaN,7.74,44.5,334.1,6 / 6,425592,2020-03-19 18:52:30:895
-9.892841,-0.54109,2.226608,8.0,49.83225,24.040747,317.0,NaN,7.74,44.5,334.1,6 / 6,426092,2020-03-19 18:52:31:395
-11.592725,-3.801992,2.240973,8.0,49.83225,24.040747,317.0,NaN,7.74,44.5,334.1,6 / 6,426591,2020-03-19 18:52:31:894
-16.069881,0.536301,2.375048,8.0,49.83225,24.040747,317.0,NaN,7.74,44.5,334.1,0 / 0,427092,2020-03-19 18:52:32:395
-7.690176,-2.54743,1.192313,8.0,49.83225,24.040747,317.0,NaN,7.74,44.5,334.1,0 / 0,427592,2020-03-19 18:52:32:895
-6.014234,0.521936,0.354342,8.0,49.83225,24.040747,317.0,NaN,7.74,44.5,334.1,0 / 0,428091,2020-03-19 18:52:33:394
-4.357447,-1.312023,1.958457,8.0,49.83225,24.040747,317.0,NaN,7.74,44.5,334.1,0 / 0,428592,2020-03-19 18:52:33:895
-7.364564,1.297657,-2.322375,8.0,49.83225,24.040747,317.0,NaN,7.74,44.5,334.1,0 / 3,429091,2020-03-19 18:52:34:394
-12.186486,-0.68953,2.331953,8.0,49.83225,24.040747,317.0,NaN,7.74,44.5,334.1,0 / 3,429592,2020-03-19 18:52:34:895
-14.149732,-0.991199,4.046201,8.0,49.83225,24.040747,317.0,NaN,7.74,44.5,334.1,0 / 4,430091,2020-03-19 18:52:35:394
-18.828003,2.274492,2.111686,8.0,49.83225,24.040747,317.0,NaN,7.74,44.5,334.1,0 / 4,430592,2020-03-19 18:52:35:895
-11.880029,0.167594,1.211466,8.0,49.83225,24.040747,317.0,NaN,7.74,44.5,334.1,0 / 8,431091,2020-03-19 18:52:36:394
-11.961432,-1.446098,1.982399,8.0,49.83225,24.040747,317.0,NaN,7.74,44.5,334.1,0 / 8,431592,2020-03-19 18:52:36:895
-12.129025,-1.264138,1.747767,8.0,49.83225,24.040747,317.0,NaN,7.74,44.5,334.1,0 / 11,432091,2020-03-19 18:52:37:394
-15.140931,1.584962,3.581726,8.0,49.83225,24.040747,317.0,NaN,7.74,44.5,334.1,0 / 11,432592,2020-03-19 18:52:37:895
-11.348516,-2.705448,1.939303,8.0,49.83225,24.040747,317.0,NaN,7.74,44.5,334.1,0 / 11,433091,2020-03-19 18:52:38:394
-17.329231,2.724602,1.182736,8.0,49.83125,24.04026,330.0,NaN,1.692,18.0,0.0,12 / 12,433591,2020-03-19 18:52:38:894
-9.528923,-2.059013,1.058237,8.0,49.83125,24.04026,330.0,NaN,1.692,18.0,0.0,12 / 12,434091,2020-03-19 18:52:39:394
-8.485051,0.699107,0.828394,8.0,49.83125,24.04026,330.0,NaN,1.692,18.0,0.0,12 / 12,434591,2020-03-19 18:52:39:894
-6.670246,-1.412579,2.063802,8.0,49.83125,24.04026,330.0,NaN,1.692,18.0,0.0,12 / 12,435091,2020-03-19 18:52:40:394
-13.421895,0.833182,0.54109,8.0,49.83125,24.04026,330.0,NaN,1.692,18.0,0.0,12 / 12,435591,2020-03-19 18:52:40:894
-6.14831,-1.924938,0.972046,8.0,49.83125,24.04026,330.0,NaN,1.692,18.0,0.0,12 / 12,436091,2020-03-19 18:52:41:394
-5.884948,1.388637,-1.728614,8.0,49.83125,24.04026,330.0,NaN,1.692,18.0,0.0,12 / 12,436591,2020-03-19 18:52:41:894
-6.110002,-0.694318,3.576938,8.0,49.83125,24.04026,330.0,NaN,1.692,18.0,0.0,12 / 12,437092,2020-03-19 18:52:42:395
-8.446744,1.436521,-0.354342,8.0,49.83125,24.04026,330.0,NaN,1.692,18.0,0.0,12 / 12,437591,2020-03-19 18:52:42:894
-11.118672,1.283292,1.910573,8.0,49.83125,24.04026,330.0,NaN,1.692,18.0,0.0,12 / 12,438092,2020-03-19 18:52:43:395
-12.157756,-0.646434,2.365471,8.0,49.83125,24.04026,330.0,NaN,1.692,18.0,0.0,12 / 12,438591,2020-03-19 18:52:43:894
-13.211205,1.417368,2.916138,8.0,49.83125,24.04026,330.0,NaN,1.692,18.0,0.0,12 / 12,439091,2020-03-19 18:52:44:394
-14.413095,-0.014365,2.03986,8.0,49.83125,24.04026,330.0,NaN,1.692,18.0,0.0,12 / 12,439592,2020-03-19 18:52:44:895
-13.081918,1.551443,4.960786,8.0,49.83125,24.04026,330.0,NaN,1.692,18.0,0.0,12 / 12,440091,2020-03-19 18:52:45:394
-10.553641,-2.533065,2.140417,8.0,49.83125,24.04026,330.0,NaN,1.692,18.0,0.0,12 / 12,440592,2020-03-19 18:52:45:895
-16.208746,3.294422,3.591303,8.0,49.83125,24.04026,330.0,NaN,1.692,18.0,0.0,12 / 12,441091,2020-03-19 18:52:46:394
-8.719683,-1.675941,1.642422,8.0,49.83125,24.04026,330.0,NaN,1.692,18.0,0.0,12 / 12,441592,2020-03-19 18:52:46:895
-10.16578,1.426944,1.776498,8.0,49.83125,24.04026,330.0,NaN,1.692,18.0,0.0,12 / 12,442091,2020-03-19 18:52:47:394
-5.693412,-1.398214,2.121263,8.0,49.83125,24.04026,330.0,NaN,1.692,18.0,0.0,12 / 12,442592,2020-03-19 18:52:47:895
-6.076483,1.819593,0.636858,8.0,49.83125,24.04026,330.0,NaN,1.692,18.0,0.0,12 / 12,443092,2020-03-19 18:52:48:395
-6.497863,-1.484405,1.039084,8.0,49.83125,24.04026,330.0,NaN,1.692,18.0,0.0,12 / 12,443592,2020-03-19 18:52:48:895
-7.082048,1.335965,0.143652,8.0,49.83125,24.04026,330.0,NaN,1.692,18.0,0.0,12 / 12,444092,2020-03-19 18:52:49:395
-5.928043,-0.56982,1.953669,8.0,49.83125,24.04026,330.0,NaN,1.692,18.0,0.0,12 / 12,444592,2020-03-19 18:52:49:895
-8.834604,1.489194,0.445322,8.0,49.83125,24.04026,330.0,NaN,1.692,18.0,0.0,12 / 12,445092,2020-03-19 18:52:50:395
-12.74673,-0.009577,3.404555,8.0,49.83125,24.04026,330.0,NaN,1.692,18.0,0.0,12 / 12,445592,2020-03-19 18:52:50:895
-13.062764,-1.144428,3.581726,8.0,49.83125,24.04026,330.0,NaN,1.692,18.0,0.0,12 / 12,446092,2020-03-19 18:52:51:395
-14.350845,2.418144,3.222596,8.0,49.83125,24.04026,330.0,NaN,1.692,18.0,0.0,12 / 12,446592,2020-03-19 18:52:51:895
-11.166556,-3.514688,2.145205,8.0,49.83125,24.04026,330.0,NaN,1.692,18.0,0.0,12 / 12,447092,2020-03-19 18:52:52:395
-15.332468,0.885855,4.76925,8.0,49.83125,24.04026,330.0,NaN,1.692,18.0,0.0,12 / 12,447591,2020-03-19 18:52:52:894
-10.160992,-2.528277,2.882619,8.0,49.83125,24.04026,330.0,NaN,1.692,18.0,0.0,12 / 12,448091,2020-03-19 18:52:53:394
-19.081787,1.819593,3.375825,8.0,49.83125,24.04026,330.0,NaN,1.692,18.0,0.0,12 / 12,448592,2020-03-19 18:52:53:895
-10.778696,-1.651999,3.064578,8.0,49.83125,24.04026,330.0,NaN,1.692,18.0,0.0,12 / 12,449091,2020-03-19 18:52:54:394
-12.066776,0.56982,0.818817,8.0,49.83125,24.04026,330.0,NaN,1.692,18.0,0.0,12 / 12,449591,2020-03-19 18:52:54:894
-4.860229,-1.206678,1.206678,8.0,49.83125,24.04026,330.0,NaN,1.692,18.0,0.0,12 / 12,450092,2020-03-19 18:52:55:395
-5.951985,1.546654,-1.666364,8.0,49.83125,24.04026,330.0,NaN,1.692,18.0,0.0,12 / 12,450592,2020-03-19 18:52:55:895
-6.129156,-0.56982,2.116475,8.0,49.83125,24.04026,330.0,NaN,1.692,18.0,0.0,12 / 12,451092,2020-03-19 18:52:56:395
-8.781932,1.077391,0.737414,8.0,49.83125,24.04026,330.0,NaN,1.692,18.0,0.0,12 / 12,451591,2020-03-19 18:52:56:894
-5.228936,-0.981623,1.417368,8.0,49.83125,24.04026,330.0,NaN,1.692,18.0,0.0,12 / 12,452091,2020-03-19 18:52:57:394
-5.056554,1.924938,-0.895431,8.0,49.83125,24.04026,330.0,NaN,1.692,18.0,0.0,12 / 12,452591,2020-03-19 18:52:57:894
-8.293514,0.828394,2.288857,8.0,49.83125,24.04026,330.0,NaN,1.692,18.0,0.0,12 / 12,453091,2020-03-19 18:52:58:394
-10.951078,0.191536,1.838747,8.0,49.83125,24.04026,330.0,NaN,1.692,18.0,0.0,12 / 12,453591,2020-03-19 18:52:58:894
-14.216769,-0.110133,3.423709,8.0,49.83125,24.04026,330.0,NaN,1.692,18.0,0.0,12 / 12,454091,2020-03-19 18:52:59:394
-10.615891,0.502782,4.821923,8.0,49.83125,24.04026,330.0,NaN,1.692,18.0,0.0,12 / 12,454591,2020-03-19 18:52:59:894
-14.891934,1.335965,4.869807,8.0,49.83125,24.04026,330.0,NaN,1.692,18.0,0.0,12 / 12,455091,2020-03-19 18:53:00:394
-12.464214,-0.80924,4.295198,8.0,49.83125,24.04026,330.0,NaN,1.692,18.0,0.0,12 / 12,455592,2020-03-19 18:53:00:895
-14.528016,2.06859,3.634398,8.0,49.83125,24.04026,330.0,NaN,1.692,18.0,0.0,12 / 12,456091,2020-03-19 18:53:01:394
-10.414778,-2.322375,3.605668,8.0,49.83125,24.04026,330.0,NaN,1.692,18.0,0.0,12 / 12,456591,2020-03-19 18:53:01:894
-17.314869,-0.54109,3.193865,8.0,49.83125,24.04026,330.0,NaN,1.692,18.0,0.0,12 / 12,457091,2020-03-19 18:53:02:394
-8.743625,-3.62961,2.834735,8.0,49.83125,24.04026,330.0,NaN,1.692,18.0,0.0,12 / 12,457591,2020-03-19 18:53:02:894
-12.464214,-0.536301,2.796428,8.0,49.83125,24.04026,330.0,NaN,1.692,18.0,0.0,12 / 12,458091,2020-03-19 18:53:03:394
-6.478709,-2.695871,1.781286,8.0,49.83125,24.04026,330.0,NaN,1.692,18.0,0.0,12 / 12,458591,2020-03-19 18:53:03:894
-7.31668,0.919373,-0.775721,8.0,49.83125,24.04026,330.0,NaN,1.692,18.0,0.0,12 / 12,459091,2020-03-19 18:53:04:394
-7.225701,-3.883395,1.886631,8.0,49.83125,24.04026,330.0,NaN,1.692,18.0,0.0,12 / 12,459591,2020-03-19 18:53:04:894
-10.845734,1.125275,-0.493206,8.0,49.83125,24.04026,330.0,NaN,1.692,18.0,0.0,12 / 12,460092,2020-03-19 18:53:05:395
-9.155427,1.465252,3.174712,8.0,49.83125,24.04026,330.0,NaN,1.692,18.0,0.0,12 / 12,460592,2020-03-19 18:53:05:895
-0.162806,2.844312,5.152323,8.0,49.83125,24.04026,330.0,NaN,1.692,18.0,0.0,12 / 12,461092,2020-03-19 18:53:06:395
-1.570596,4.548983,4.046201,8.0,49.83125,24.04026,330.0,NaN,1.692,18.0,0.0,12 / 12,461591,2020-03-19 18:53:06:894
-3.452439,3.763685,7.781156,8.0,49.83125,24.04026,330.0,NaN,1.692,18.0,0.0,12 / 12,462091,2020-03-19 18:53:07:394