ACCELEROMETER X (m/s²),ACCELEROMETER Y (m/s²),ACCELEROMETER Z (m/s²),PROXIMITY (m),LOCATION Latitude : ,LOCATION Longitude : ,LOCATION Altitude ( m),LOCATION Altitude-google ( m),LOCATION Speed ( Kmh),LOCATION Accuracy ( m),LOCATION ORIENTATION (°),Satellites in range,Time since start in ms ,YYYY-MO-DD HH-MI-SS_SSS
6.727707,2.973599,3.936068,8.0,49.848034,24.035566,392.0,NaN,1.8,9.5,0.0,0 / 0,39,2020-03-21 17:18:22:111
7.891289,0.440533,-3.342306,0.0,49.848034,24.035566,392.0,NaN,1.8,9.5,0.0,0 / 4,538,2020-03-21 17:18:22:610
6.301539,-1.154005,0.067038,0.0,49.848034,24.035566,392.0,NaN,1.8,9.5,0.0,0 / 4,1039,2020-03-21 17:18:23:111
4.534618,-5.755661,-1.369483,0.0,49.848034,24.035566,392.0,NaN,1.8,9.5,0.0,0 / 6,1538,2020-03-21 17:18:23:610
4.563349,-3.730166,-0.02873,0.0,49.848034,24.035566,392.0,NaN,1.8,9.5,0.0,0 / 6,2039,2020-03-21 17:18:24:111
-0.972046,-6.660669,-2.954445,0.0,49.848034,24.035566,392.0,NaN,1.8,9.5,0.0,0 / 11,2538,2020-03-21 17:18:24:610
-2.868254,-5.497087,0.23942,0.0,49.848034,24.035566,392.0,NaN,1.8,9.5,0.0,0 / 11,3038,2020-03-21 17:18:25:110
2.767697,-4.932055,0.110133,0.0,49.848034,24.035566,392.0,NaN,1.8,9.5,0.0,0 / 15,3539,2020-03-21 17:18:25:611
2.470816,-7.718906,2.949657,0.0,49.848034,24.035566,392.0,NaN,1.8,9.5,0.0,0 / 15,4038,2020-03-21 17:18:26:110
4.941633,-6.833051,-1.699883,0.0,49.848034,24.035566,392.0,NaN,1.8,9.5,0.0,0 / 15,4538,2020-03-21 17:18:26:610
1.168371,-9.816227,1.910573,0.0,49.848217,24.035746,385.0,NaN,4.536,10.5,30.3,15 / 15,5039,2020-03-21 17:18:27:111
8.073248,-5.856217,-1.359906,0.0,49.848217,24.035746,385.0,NaN,4.536,10.5,30.3,15 / 15,5539,2020-03-21 17:18:27:611
3.366248,-16.82645,1.168371,0.0,49.848217,24.035746,385.0,NaN,4.536,10.5,30.3,15 / 15,6039,2020-03-21 17:18:28:111
7.015011,-16.845604,-7.517793,0.0,49.848217,24.035746,385.0,NaN,4.536,10.5,30.3,15 / 15,6538,2020-03-21 17:18:28:610
4.697424,-9.074024,-0.866701,0.0,49.848217,24.035746,385.0,NaN,4.536,10.5,30.3,15 / 15,7039,2020-03-21 17:18:29:111
-1.546654,-1.508347,0.3304,0.0,49.848217,24.035746,385.0,NaN,4.536,10.5,30.3,15 / 15,7538,2020-03-21 17:18:29:610
3.830723,-12.014104,-1.158794,0.0,49.848217,24.035746,385.0,NaN,4.536,10.5,30.3,15 / 15,8038,2020-03-21 17:18:30:110
2.418144,-9.002198,0.823605,0.0,49.848217,24.035746,385.0,NaN,4.536,10.5,30.3,15 / 15,8538,2020-03-21 17:18:30:610
3.529053,-7.43639,1.905785,0.0,49.848217,24.035746,385.0,NaN,4.536,10.5,30.3,15 / 15,9038,2020-03-21 17:18:31:110
0.986411,-17.3005,-0.383072,0.0,49.848217,24.035746,385.0,NaN,4.536,10.5,30.3,15 / 15,9539,2020-03-21 17:18:31:611
-4.582502,-7.862558,9.792285,0.0,49.848217,24.035746,385.0,NaN,4.536,10.5,30.3,15 / 15,10038,2020-03-21 17:18:32:110
1.910573,-5.985504,-1.599327,0.0,49.848217,24.035746,385.0,NaN,4.536,10.5,30.3,15 / 15,10539,2020-03-21 17:18:32:611
4.458004,-6.914454,-5.401319,0.0,49.848217,24.035746,385.0,NaN,4.536,10.5,30.3,15 / 15,11039,2020-03-21 17:18:33:111
2.475605,-8.705317,-0.373495,0.0,49.848217,24.035746,385.0,NaN,4.536,10.5,30.3,15 / 15,11539,2020-03-21 17:18:33:611
-1.120486,-5.803545,2.044648,0.0,49.848217,24.035746,385.0,NaN,4.536,10.5,30.3,15 / 15,12039,2020-03-21 17:18:34:111
-2.39899,-8.451532,4.055778,0.0,49.848217,24.035746,385.0,NaN,4.536,10.5,30.3,15 / 15,12538,2020-03-21 17:18:34:610
5.64074,-8.566454,1.029507,0.0,49.848217,24.035746,385.0,NaN,4.536,10.5,30.3,15 / 15,13039,2020-03-21 17:18:35:111
-0.828394,-0.483629,10.582372,0.0,49.848217,24.035746,385.0,NaN,4.536,10.5,30.3,15 / 15,13538,2020-03-21 17:18:35:610
4.491523,-7.393295,-1.58975,0.0,49.848217,24.035746,385.0,NaN,4.536,10.5,30.3,15 / 15,14038,2020-03-21 17:18:36:110
4.97994,-10.127473,-14.422671,0.0,49.848217,24.035746,385.0,NaN,4.536,10.5,30.3,15 / 15,14538,2020-03-21 17:18:36:610
1.106121,-7.115567,2.240973,0.0,49.848217,24.035746,385.0,NaN,4.536,10.5,30.3,15 / 15,15039,2020-03-21 17:18:37:111
1.355118,-8.66701,1.479617,0.0,49.848217,24.035746,385.0,NaN,4.536,10.5,30.3,15 / 15,15539,2020-03-21 17:18:37:611
2.149993,-7.474697,5.93762,0.0,49.848217,24.035746,385.0,NaN,4.536,10.5,30.3,15 / 15,16039,2020-03-21 17:18:38:111
8.288726,-10.783484,-3.165135,0.0,49.848217,24.035746,385.0,NaN,4.536,10.5,30.3,15 / 15,16539,2020-03-21 17:18:38:611
-0.991199,-19.416977,4.074931,0.0,49.848217,24.035746,385.0,NaN,4.536,10.5,30.3,15 / 15,17039,2020-03-21 17:18:39:111
7.062895,-8.063671,-0.972046,0.0,49.848217,24.035746,385.0,NaN,4.536,10.5,30.3,15 / 15,17539,2020-03-21 17:18:39:611
0.766145,-4.788403,-0.981623,0.0,49.848217,24.035746,385.0,NaN,4.536,10.5,30.3,15 / 15,18039,2020-03-21 17:18:40:111
0.02873,-6.545747,-0.646434,0.0,49.848217,24.035746,385.0,NaN,4.536,10.5,30.3,15 / 15,18538,2020-03-21 17:18:40:610
6.952762,-11.247959,0.344765,0.0,49.848217,24.035746,385.0,NaN,4.536,10.5,30.3,15 / 15,19038,2020-03-21 17:18:41:110
6.895301,-13.982138,-2.504335,0.0,49.848217,24.035746,385.0,NaN,4.536,10.5,30.3,15 / 15,19539,2020-03-21 17:18:41:611
-1.417367,-19.349937,0.177171,0.0,49.848217,24.035746,385.0,NaN,4.536,10.5,30.3,15 / 15,20039,2020-03-21 17:18:42:111
0.320823,-3.715801,-9.653421,0.0,49.848217,24.035746,385.0,NaN,4.536,10.5,30.3,15 / 15,20538,2020-03-21 17:18:42:610
-4.649539,-15.05474,1.192313,0.0,49.848217,24.035746,385.0,NaN,4.536,10.5,30.3,15 / 15,21039,2020-03-21 17:18:43:111
4.242526,-16.539145,-10.836157,0.0,49.848217,24.035746,385.0,NaN,4.536,10.5,30.3,15 / 15,21538,2020-03-21 17:18:43:610
6.789956,-6.947973,-3.007117,0.0,49.848217,24.035746,385.0,NaN,4.536,10.5,30.3,15 / 15,22038,2020-03-21 17:18:44:110
0.933739,-4.606444,-0.512359,0.0,49.848217,24.035746,385.0,NaN,4.536,10.5,30.3,15 / 15,22538,2020-03-21 17:18:44:610
3.289633,-7.469909,-0.043096,0.0,49.848217,24.035746,385.0,NaN,4.536,10.5,30.3,15 / 15,23039,2020-03-21 17:18:45:111
-1.651999,-17.535133,-2.250549,0.0,49.848217,24.035746,385.0,NaN,4.536,10.5,30.3,15 / 15,23538,2020-03-21 17:18:45:610
-6.320692,-6.196194,1.896208,0.0,49.848217,24.035746,385.0,NaN,4.536,10.5,30.3,15 / 15,24038,2020-03-21 17:18:46:110
-1.331176,-17.956512,-0.632069,0.0,49.848217,24.035746,385.0,NaN,4.536,10.5,30.3,15 / 15,24539,2020-03-21 17:18:46:611
12.133814,-18.703505,-7.508216,0.0,49.848217,24.035746,385.0,NaN,4.536,10.5,30.3,15 / 15,25038,2020-03-21 17:18:47:110
6.588843,-10.568007,-2.60968,0.0,49.848217,24.035746,385.0,NaN,4.536,10.5,30.3,15 / 15,25538,2020-03-21 17:18:47:610
7.996634,-5.918466,-6.646304,0.0,49.848217,24.035746,385.0,NaN,4.536,10.5,30.3,15 / 15,26039,2020-03-21 17:18:48:111
0.258574,-8.657434,-2.351106,0.0,49.848217,24.035746,385.0,NaN,4.536,10.5,30.3,15 / 15,26538,2020-03-21 17:18:48:610
-1.94888,-5.003881,2.006341,0.0,49.848217,24.035746,385.0,NaN,4.536,10.5,30.3,15 / 15,27038,2020-03-21 17:18:49:110
1.364695,-8.054094,-3.222595,0.0,49.848217,24.035746,385.0,NaN,4.536,10.5,30.3,15 / 15,27539,2020-03-21 17:18:49:611
2.030283,-13.613431,-2.030283,0.0,49.848217,24.035746,385.0,NaN,4.536,10.5,30.3,15 / 15,28038,2020-03-21 17:18:50:110
12.411542,-13.881581,-4.386177,0.0,49.848217,24.035746,385.0,NaN,4.536,10.5,30.3,15 / 15,28538,2020-03-21 17:18:50:610
4.879383,-13.110648,-3.596091,0.0,49.848217,24.035746,385.0,NaN,4.536,10.5,30.3,15 / 15,29038,2020-03-21 17:18:51:110
1.201889,-17.908628,0.004788,0.0,49.848217,24.035746,385.0,NaN,4.536,10.5,30.3,15 / 15,29539,2020-03-21 17:18:51:611
-6.847417,-16.74026,4.13718,0.0,49.848217,24.035746,385.0,NaN,4.536,10.5,30.3,15 / 15,30038,2020-03-21 17:18:52:110
-4.003105,1.249773,10.716447,0.0,49.848217,24.035746,385.0,NaN,4.536,10.5,30.3,15 / 15,30538,2020-03-21 17:18:52:610
3.050213,-11.482592,-4.683058,0.0,49.848217,24.035746,385.0,NaN,4.536,10.5,30.3,15 / 15,31039,2020-03-21 17:18:53:111
8.532935,-14.571112,-11.492168,0.0,49.848217,24.035746,385.0,NaN,4.536,10.5,30.3,15 / 15,31539,2020-03-21 17:18:53:611
2.1883,-8.987833,-1.273715,0.0,49.848217,24.035746,385.0,NaN,4.536,10.5,30.3,15 / 15,32039,2020-03-21 17:18:54:111
1.101333,-3.648763,0.416591,0.0,49.848217,24.035746,385.0,NaN,4.536,10.5,30.3,15 / 15,32538,2020-03-21 17:18:54:610
4.276045,-9.346964,0.502782,0.0,49.848217,24.035746,385.0,NaN,4.536,10.5,30.3,15 / 15,33038,2020-03-21 17:18:55:110
-3.77805,-3.605668,2.475605,0.0,49.848217,24.035746,385.0,NaN,4.536,10.5,30.3,15 / 15,33538,2020-03-21 17:18:55:610
2.236184,-7.388506,-1.173159,0.0,49.848217,24.035746,385.0,NaN,4.536,10.5,30.3,15 / 15,34039,2020-03-21 17:18:56:111
-4.094085,-1.441309,2.13084,0.0,49.848217,24.035746,385.0,NaN,4.536,10.5,30.3,15 / 15,34539,2020-03-21 17:18:56:611
2.011129,-12.564771,0.823605,0.0,49.848217,24.035746,385.0,NaN,4.536,10.5,30.3,15 / 15,35039,2020-03-21 17:18:57:111
-0.071826,-13.733141,2.652776,0.0,49.848217,24.035746,385.0,NaN,4.536,10.5,30.3,15 / 15,35539,2020-03-21 17:18:57:611
1.996764,-6.062118,-6.210559,0.0,49.848217,24.035746,385.0,NaN,4.536,10.5,30.3,15 / 15,36039,2020-03-21 17:18:58:111
3.438074,-7.139509,0.292093,0.0,49.848217,24.035746,385.0,NaN,4.536,10.5,30.3,15 / 15,36539,2020-03-21 17:18:58:611
12.650962,1.61848,10.716447,0.0,49.848217,24.035746,385.0,NaN,4.536,10.5,30.3,15 / 15,37038,2020-03-21 17:18:59:110
7.402872,-7.771579,-4.127603,0.0,49.848217,24.035746,385.0,NaN,4.536,10.5,30.3,15 / 15,37538,2020-03-21 17:18:59:610
2.920926,-8.571242,-7.881712,0.0,49.848217,24.035746,385.0,NaN,4.536,10.5,30.3,15 / 15,38038,2020-03-21 17:19:00:110
2.767697,-8.935161,-2.149993,0.0,49.848217,24.035746,385.0,NaN,4.536,10.5,30.3,15 / 15,38538,2020-03-21 17:19:00:610
-1.101333,-13.939042,-0.948104,0.0,49.848217,24.035746,385.0,NaN,4.536,10.5,30.3,15 / 15,39038,2020-03-21 17:19:01:110
1.532289,-6.215348,-5.928043,0.0,49.848217,24.035746,385.0,NaN,4.536,10.5,30.3,15 / 15,39539,2020-03-21 17:19:01:611
2.652776,-5.865794,-3.227384,0.0,49.848217,24.035746,385.0,NaN,4.536,10.5,30.3,15 / 15,40039,2020-03-21 17:19:02:111
-0.737414,-3.86903,-1.49877,0.0,49.848217,24.035746,385.0,NaN,4.536,10.5,30.3,15 / 15,40539,2020-03-21 17:19:02:611
3.677494,-6.876147,-2.782062,0.0,49.848217,24.035746,385.0,NaN,4.536,10.5,30.3,15 / 15,41039,2020-03-21 17:19:03:111
0.612916,-3.744531,-0.507571,0.0,49.848217,24.035746,385.0,NaN,4.536,10.5,30.3,15 / 15,41539,2020-03-21 17:19:03:611
0.052672,-8.403648,-4.185065,0.0,49.848217,24.035746,385.0,NaN,4.536,10.5,30.3,15 / 15,42039,2020-03-21 17:19:04:111
-1.843535,-3.892972,-1.929727,0.0,49.848217,24.035746,385.0,NaN,4.536,10.5,30.3,15 / 15,42539,2020-03-21 17:19:04:611
0.665588,-6.809109,-1.939303,0.0,49.848217,24.035746,385.0,NaN,4.536,10.5,30.3,15 / 15,43039,2020-03-21 17:19:05:111
-2.011129,-4.232949,-0.919373,0.0,49.848217,24.035746,385.0,NaN,4.536,10.5,30.3,15 / 15,43539,2020-03-21 17:19:05:611
2.432509,-10.304645,-1.671153,0.0,49.848217,24.035746,385.0,NaN,4.536,10.5,30.3,15 / 15,44039,2020-03-21 17:19:06:111
0.588974,-5.999869,-2.327164,0.0,49.848217,24.035746,385.0,NaN,4.536,10.5,30.3,15 / 15,44538,2020-03-21 17:19:06:610
1.431733,-8.27436,-1.73819,0.0,49.848217,24.035746,385.0,NaN,4.536,10.5,30.3,15 / 15,45039,2020-03-21 17:19:07:111
-1.786074,-7.996633,-3.32794,0.0,49.848217,24.035746,385.0,NaN,4.536,10.5,30.3,15 / 15,45538,2020-03-21 17:19:07:610
0.885855,-11.468226,5.544971,0.0,49.848217,24.035746,385.0,NaN,4.536,10.5,30.3,15 / 15,46038,2020-03-21 17:19:08:110
-0.770933,-21.74414,-3.605668,0.0,49.848217,24.035746,385.0,NaN,4.536,10.5,30.3,15 / 15,46539,2020-03-21 17:19:08:611
6.670246,-13.206416,-4.611232,0.0,49.848217,24.035746,385.0,NaN,4.536,10.5,30.3,15 / 15,47038,2020-03-21 17:19:09:110
0.675165,-17.343597,-7.225701,0.0,49.848217,24.035746,385.0,NaN,4.536,10.5,30.3,15 / 15,47538,2020-03-21 17:19:09:610
7.771579,-8.580819,12.650962,0.0,49.848217,24.035746,385.0,NaN,4.536,10.5,30.3,15 / 15,48038,2020-03-21 17:19:10:110
3.873819,-6.162675,-6.210559,0.0,49.848217,24.035746,385.0,NaN,4.536,10.5,30.3,15 / 15,48539,2020-03-21 17:19:10:611
3.193865,-12.392388,2.595315,0.0,49.848217,24.035746,385.0,NaN,4.536,10.5,30.3,15 / 15,49039,2020-03-21 17:19:11:111
4.951209,-25.828648,-7.991845,0.0,49.848217,24.035746,385.0,NaN,4.536,10.5,30.3,15 / 15,49539,2020-03-21 17:19:11:611
7.484275,-14.887146,2.973599,0.0,49.848217,24.035746,385.0,NaN,4.536,10.5,30.3,15 / 15,50038,2020-03-21 17:19:12:110
4.797981,-19.560625,-9.227253,0.0,49.848217,24.035746,385.0,NaN,4.536,10.5,30.3,15 / 15,50538,2020-03-21 17:19:12:610
-0.933739,-9.188946,10.007763,0.0,49.848217,24.035746,385.0,NaN,4.536,10.5,30.3,15 / 15,51038,2020-03-21 17:19:13:110
4.347871,-7.354987,-6.277597,0.0,49.848217,24.035746,385.0,NaN,4.536,10.5,30.3,15 / 15,51539,2020-03-21 17:19:13:611
5.061342,-13.785813,10.333375,0.0,49.848217,24.035746,385.0,NaN,4.536,10.5,30.3,15 / 15,52038,2020-03-21 17:19:14:110
2.499547,-4.788403,0.019154,0.0,49.848217,24.035746,385.0,NaN,4.536,10.5,30.3,15 / 15,52538,2020-03-21 17:19:14:610
5.923255,-18.195932,10.486604,0.0,49.848217,24.035746,385.0,NaN,4.536,10.5,30.3,15 / 15,53038,2020-03-21 17:19:15:110
2.595315,-7.762002,-10.606314,0.0,49.848217,24.035746,385.0,NaN,4.536,10.5,30.3,15 / 15,53538,2020-03-21 17:19:15:610
-6.287173,-20.60929,-38.08696,0.0,49.848217,24.035746,385.0,NaN,4.536,10.5,30.3,15 / 15,54039,2020-03-21 17:19:16:111
1.49877,-14.719552,-5.975927,0.0,49.848217,24.035746,385.0,NaN,4.536,10.5,30.3,15 / 15,54538,2020-03-21 17:19:16:610
4.936844,-19.177555,17.492037,0.0,49.848217,24.035746,385.0,NaN,4.536,10.5,30.3,15 / 15,55038,2020-03-21 17:19:17:110
5.00867,-9.591172,-1.522712,0.0,49.848217,24.035746,385.0,NaN,4.536,10.5,30.3,15 / 15,55538,2020-03-21 17:19:17:610
0.21069,-4.065354,1.537078,0.0,49.848217,24.035746,385.0,NaN,4.536,10.5,30.3,15 / 15,56039,2020-03-21 17:19:18:111
-0.47884,-12.210428,-0.301669,0.0,49.848217,24.035746,385.0,NaN,4.536,10.5,30.3,15 / 15,56539,2020-03-21 17:19:18:611
-0.153229,-10.213664,-1.752556,0.0,49.848217,24.035746,385.0,NaN,4.536,10.5,30.3,15 / 15,57038,2020-03-21 17:19:19:110
0.627281,-7.627927,-3.270479,0.0,49.848217,24.035746,385.0,NaN,4.536,10.5,30.3,15 / 15,57539,2020-03-21 17:19:19:611
1.177947,-5.415684,-2.059013,0.0,49.848217,24.035746,385.0,NaN,4.536,10.5,30.3,15 / 15,58038,2020-03-21 17:19:20:110
3.466804,-5.406107,-2.633622,0.0,49.848217,24.035746,385.0,NaN,4.536,10.5,30.3,15 / 15,58539,2020-03-21 17:19:20:611
0.057461,-6.445191,-3.069367,0.0,49.848217,24.035746,385.0,NaN,4.536,10.5,30.3,15 / 15,59039,2020-03-21 17:19:21:111
5.88016,-6.900089,-3.509899,0.0,49.848217,24.035746,385.0,NaN,4.536,10.5,30.3,15 / 15,59539,2020-03-21 17:19:21:611
4.774039,-9.251195,-2.600103,0.0,49.848217,24.035746,385.0,NaN,4.536,10.5,30.3,15 / 15,60038,2020-03-21 17:19:22:110
0.766145,-4.089296,-0.833182,0.0,49.848217,24.035746,385.0,NaN,4.536,10.5,30.3,0 / 0,60539,2020-03-21 17:19:22:611
5.865794,-9.840169,-1.23062,0.0,49.848217,24.035746,385.0,NaN,4.536,10.5,30.3,0 / 0,61038,2020-03-21 17:19:23:110
-1.446098,-4.903325,-0.512359,0.0,49.848217,24.035746,385.0,NaN,4.536,10.5,30.3,0 / 1,61538,2020-03-21 17:19:23:610
2.600103,-7.929596,0.584185,0.0,49.848217,24.035746,385.0,NaN,4.536,10.5,30.3,0 / 1,62039,2020-03-21 17:19:24:111
-1.766921,-5.295974,0.766145,0.0,49.848217,24.035746,385.0,NaN,4.536,10.5,30.3,0 / 6,62538,2020-03-21 17:19:24:610
0.430956,-7.699753,-0.579397,0.0,49.848217,24.035746,385.0,NaN,4.536,10.5,30.3,0 / 6,63039,2020-03-21 17:19:25:111
0.847547,-9.337387,-3.797204,0.0,49.84765,24.039736,394.0,NaN,2.124,11.5,0.0,14 / 14,63538,2020-03-21 17:19:25:610
-1.8579,-7.623138,9.021352,0.0,49.84765,24.039736,394.0,NaN,2.124,11.5,0.0,14 / 14,64039,2020-03-21 17:19:26:111
0.272939,-11.860875,-2.920926,0.0,49.84765,24.039736,394.0,NaN,2.124,11.5,0.0,14 / 14,64538,2020-03-21 17:19:26:610
2.499547,-7.843405,-3.620033,0.0,49.84765,24.039736,394.0,NaN,2.124,11.5,0.0,14 / 14,65039,2020-03-21 17:19:27:111
-4.76925,-9.648633,-12.382812,0.0,49.84765,24.039736,394.0,NaN,2.124,11.5,0.0,14 / 14,65538,2020-03-21 17:19:27:610
2.475605,-9.993398,-6.62715,0.0,49.84765,24.039736,394.0,NaN,2.124,11.5,0.0,14 / 14,66039,2020-03-21 17:19:28:111
2.748544,-6.909666,-3.39019,0.0,49.84765,24.039736,394.0,NaN,2.124,11.5,0.0,14 / 14,66538,2020-03-21 17:19:28:610
1.264139,-7.517793,0.493206,0.0,49.84765,24.039736,394.0,NaN,2.124,11.5,0.0,14 / 14,67039,2020-03-21 17:19:29:111
-1.086968,-5.717354,2.499547,0.0,49.84765,24.039736,394.0,NaN,2.124,11.5,0.0,14 / 14,67539,2020-03-21 17:19:29:611
-2.614468,-8.508993,-0.071826,0.0,49.84765,24.039736,394.0,NaN,2.124,11.5,0.0,14 / 14,68038,2020-03-21 17:19:30:110
-1.522712,-16.82645,-2.791639,0.0,49.84765,24.039736,394.0,NaN,2.124,11.5,0.0,14 / 14,68539,2020-03-21 17:19:30:611
4.31914,-13.091495,-0.411803,0.0,49.84765,24.039736,394.0,NaN,2.124,11.5,0.0,14 / 14,69039,2020-03-21 17:19:31:111
0.430956,-15.255854,-5.688623,0.0,49.84765,24.039736,394.0,NaN,2.124,11.5,0.0,14 / 14,69538,2020-03-21 17:19:31:610
5.061342,-14.508862,-22.663513,0.0,49.84765,24.039736,394.0,NaN,2.124,11.5,0.0,14 / 14,70038,2020-03-21 17:19:32:110
2.82037,-9.710882,-3.806781,0.0,49.84765,24.039736,394.0,NaN,2.124,11.5,0.0,14 / 14,70539,2020-03-21 17:19:32:611
2.753332,-11.559206,-10.630256,0.0,49.84765,24.039736,394.0,NaN,2.124,11.5,0.0,14 / 14,71039,2020-03-21 17:19:33:111
0.9912,-8.935161,-0.172383,0.0,49.84765,24.039736,394.0,NaN,2.124,11.5,0.0,14 / 14,71539,2020-03-21 17:19:33:611
-3.600879,-3.524265,0.957681,0.0,49.84765,24.039736,394.0,NaN,2.124,11.5,0.0,14 / 14,72038,2020-03-21 17:19:34:110
-2.082955,-11.808203,0.229843,0.0,49.84765,24.039736,394.0,NaN,2.124,11.5,0.0,14 / 14,72538,2020-03-21 17:19:34:610
-1.8579,-4.3766,2.327164,0.0,49.84765,24.039736,394.0,NaN,2.124,11.5,0.0,14 / 14,73039,2020-03-21 17:19:35:111
-2.130839,-12.421119,-0.258574,0.0,49.84765,24.039736,394.0,NaN,2.124,11.5,0.0,14 / 14,73539,2020-03-21 17:19:35:611
-6.478709,-20.39381,1.177947,0.0,49.84765,24.039736,394.0,NaN,2.124,11.5,0.0,14 / 14,74038,2020-03-21 17:19:36:110
0.35913,-22.716187,7.800309,0.0,49.84765,24.039736,394.0,NaN,2.124,11.5,0.0,14 / 14,74538,2020-03-21 17:19:36:610
3.380613,-11.070788,-2.403778,0.0,49.84765,24.039736,394.0,NaN,2.124,11.5,0.0,14 / 14,75039,2020-03-21 17:19:37:111
2.806004,-10.754754,3.672706,0.0,49.84765,24.039736,394.0,NaN,2.124,11.5,0.0,14 / 14,75539,2020-03-21 17:19:37:611
-6.478709,-22.16073,0.162806,0.0,49.84765,24.039736,394.0,NaN,2.124,11.5,0.0,14 / 14,76039,2020-03-21 17:19:38:111
5.272033,-25.546135,-8.652645,0.0,49.84765,24.039736,394.0,NaN,2.124,11.5,0.0,14 / 14,76539,2020-03-21 17:19:38:611
-2.264915,-17.348385,-2.834735,0.0,49.84765,24.039736,394.0,NaN,2.124,11.5,0.0,14 / 14,77038,2020-03-21 17:19:39:110
-7.426813,1.345541,-2.686294,0.0,49.84765,24.039736,394.0,NaN,2.124,11.5,0.0,14 / 14,77538,2020-03-21 17:19:39:610
-0.694318,-15.030798,-5.501875,0.0,49.84765,24.039736,394.0,NaN,2.124,11.5,0.0,14 / 14,78039,2020-03-21 17:19:40:111
-0.632069,-14.848839,-11.224017,0.0,49.84765,24.039736,394.0,NaN,2.124,11.5,0.0,14 / 14,78539,2020-03-21 17:19:40:611
3.782839,-11.597513,-2.94008,0.0,49.84765,24.039736,394.0,NaN,2.124,11.5,0.0,14 / 14,79039,2020-03-21 17:19:41:111
-0.507571,-5.104438,-2.111686,0.0,49.84765,24.039736,394.0,NaN,2.124,11.5,0.0,14 / 14,79538,2020-03-21 17:19:41:610
1.369483,-4.520252,-2.863465,0.0,49.84765,24.039736,394.0,NaN,2.124,11.5,0.0,14 / 14,80039,2020-03-21 17:19:42:111
2.494758,-11.36767,-2.255338,0.0,49.84765,24.039736,394.0,NaN,2.124,11.5,0.0,14 / 14,80539,2020-03-21 17:19:42:611
2.054225,-5.640739,1.56102,0.0,49.84765,24.039736,394.0,NaN,2.124,11.5,0.0,14 / 14,81039,2020-03-21 17:19:43:111
-2.662352,-8.145074,-5.166687,0.0,49.84765,24.039736,394.0,NaN,2.124,11.5,0.0,14 / 14,81539,2020-03-21 17:19:43:611
-3.318364,-8.346187,1.551443,0.0,49.84765,24.039736,394.0,NaN,2.124,11.5,0.0,14 / 14,82039,2020-03-21 17:19:44:111
2.236184,-10.175357,3.423709,0.0,49.84765,24.039736,394.0,NaN,2.124,11.5,0.0,14 / 14,82539,2020-03-21 17:19:44:611
-9.528923,-19.484013,4.113238,0.0,49.84765,24.039736,394.0,NaN,2.124,11.5,0.0,14 / 14,83039,2020-03-21 17:19:45:111
-3.864241,-19.670761,-13.962984,0.0,49.84765,24.039736,394.0,NaN,2.124,11.5,0.0,14 / 14,83539,2020-03-21 17:19:45:611
1.963245,-10.242394,-2.360683,0.0,49.84765,24.039736,394.0,NaN,2.124,11.5,0.0,14 / 14,84038,2020-03-21 17:19:46:110
3.878607,-11.48738,-12.65575,0.0,49.84765,24.039736,394.0,NaN,2.124,11.5,0.0,14 / 14,84538,2020-03-21 17:19:46:610
3.026271,-8.432379,-7.244854,0.0,49.84765,24.039736,394.0,NaN,2.124,11.5,0.0,14 / 14,85039,2020-03-21 17:19:47:111
-5.023035,-16.22311,-12.464214,0.0,49.84765,24.039736,394.0,NaN,2.124,11.5,0.0,14 / 14,85539,2020-03-21 17:19:47:611
-0.454898,-14.882358,-6.933608,0.0,49.84765,24.039736,394.0,NaN,2.124,11.5,0.0,14 / 14,86039,2020-03-21 17:19:48:111
9.035717,-13.206416,12.617443,0.0,49.84765,24.039736,394.0,NaN,2.124,11.5,0.0,14 / 14,86538,2020-03-21 17:19:48:610
-1.273715,-5.353435,-0.641646,0.0,49.84765,24.039736,394.0,NaN,2.124,11.5,0.0,14 / 14,87039,2020-03-21 17:19:49:111
-0.794875,-9.160215,-0.181959,0.0,49.84765,24.039736,394.0,NaN,2.124,11.5,0.0,14 / 14,87539,2020-03-21 17:19:49:611
2.336741,-11.722012,-1.321599,0.0,49.84765,24.039736,394.0,NaN,2.124,11.5,0.0,14 / 14,88038,2020-03-21 17:19:50:110
-6.157887,-1.489193,-0.54109,0.0,49.84765,24.039736,394.0,NaN,2.124,11.5,0.0,14 / 14,88538,2020-03-21 17:19:50:610
-6.904877,-20.159178,-0.866701,0.0,49.84765,24.039736,394.0,NaN,2.124,11.5,0.0,14 / 14,89039,2020-03-21 17:19:51:111
-1.958457,-8.978256,-4.625597,0.0,49.84765,24.039736,394.0,NaN,2.124,11.5,0.0,14 / 14,89539,2020-03-21 17:19:51:611
0.196325,-2.643199,-0.114922,0.0,49.84765,24.039736,394.0,NaN,2.124,11.5,0.0,14 / 14,90038,2020-03-21 17:19:52:110
-1.728614,-4.994304,-1.192312,0.0,49.84765,24.039736,394.0,NaN,2.124,11.5,0.0,14 / 14,90538,2020-03-21 17:19:52:610
0.746991,-5.238513,-1.043872,0.0,49.84765,24.039736,394.0,NaN,2.124,11.5,0.0,14 / 14,91039,2020-03-21 17:19:53:111
-1.197101,-3.68707,2.882619,0.0,49.84765,24.039736,394.0,NaN,2.124,11.5,0.0,14 / 14,91539,2020-03-21 17:19:53:611
-0.344765,-9.696517,0.679953,0.0,49.84765,24.039736,394.0,NaN,2.124,11.5,0.0,14 / 14,92038,2020-03-21 17:19:54:110
-5.386954,-16.323668,4.266468,0.0,49.84765,24.039736,394.0,NaN,2.124,11.5,0.0,14 / 14,92539,2020-03-21 17:19:54:611
-3.787627,-8.633492,0.895431,0.0,49.84765,24.039736,394.0,NaN,2.124,11.5,0.0,14 / 14,93039,2020-03-21 17:19:55:111
-2.30801,-13.445837,-2.834735,0.0,49.84765,24.039736,394.0,NaN,2.124,11.5,0.0,14 / 14,93539,2020-03-21 17:19:55:611
-0.545878,-3.653552,6.670246,0.0,49.84765,24.039736,394.0,NaN,2.124,11.5,0.0,14 / 14,94038,2020-03-21 17:19:56:110
2.844312,-10.486604,-1.580173,0.0,49.84765,24.039736,394.0,NaN,2.124,11.5,0.0,14 / 14,94539,2020-03-21 17:19:56:611
2.566584,-10.323798,-1.16837,0.0,49.84765,24.039736,394.0,NaN,2.124,11.5,0.0,14 / 14,95039,2020-03-21 17:19:57:111
2.63841,-7.16824,-0.71826,0.0,49.84765,24.039736,394.0,NaN,2.124,11.5,0.0,14 / 14,95538,2020-03-21 17:19:57:610
3.907337,-4.984728,-3.821146,0.0,49.84765,24.039736,394.0,NaN,2.124,11.5,0.0,14 / 14,96038,2020-03-21 17:19:58:110
0.354342,-9.56723,-5.770026,0.0,49.84765,24.039736,394.0,NaN,2.124,11.5,0.0,14 / 14,96539,2020-03-21 17:19:58:611
0.9912,-10.290278,-5.099649,0.0,49.84765,24.039736,394.0,NaN,2.124,11.5,0.0,14 / 14,97039,2020-03-21 17:19:59:111
-2.389413,-12.220005,-6.330269,0.0,49.84765,24.039736,394.0,NaN,2.124,11.5,0.0,14 / 14,97539,2020-03-21 17:19:59:611
-1.786074,-18.737022,6.244078,0.0,49.84765,24.039736,394.0,NaN,2.124,11.5,0.0,14 / 14,98039,2020-03-21 17:20:00:111
4.644751,-11.018116,-1.04866,0.0,49.84765,24.039736,394.0,NaN,2.124,11.5,0.0,14 / 14,98538,2020-03-21 17:20:00:610
-2.269703,-2.782062,2.39899,0.0,49.84765,24.039736,394.0,NaN,2.124,11.5,0.0,14 / 14,99038,2020-03-21 17:20:01:110
1.479617,-9.251195,-0.857124,0.0,49.84765,24.039736,394.0,NaN,2.124,11.5,0.0,14 / 14,99539,2020-03-21 17:20:01:611
5.152323,-11.702858,-2.27928,0.0,49.84765,24.039736,394.0,NaN,2.124,11.5,0.0,14 / 14,100038,2020-03-21 17:20:02:110
1.637634,-22.720974,-10.491392,0.0,49.84765,24.039736,394.0,NaN,2.124,11.5,0.0,14 / 14,100538,2020-03-21 17:20:02:610
-2.346318,-3.270479,1.063026,0.0,49.84765,24.039736,394.0,NaN,2.124,11.5,0.0,14 / 14,101039,2020-03-21 17:20:03:111
-1.685518,-7.580042,-1.623269,0.0,49.84765,24.039736,394.0,NaN,2.124,11.5,0.0,14 / 14,101539,2020-03-21 17:20:03:611
-1.80044,-7.465121,-3.069367,0.0,49.84765,24.039736,394.0,NaN,2.124,11.5,0.0,14 / 14,102039,2020-03-21 17:20:04:111
-0.124498,-12.559982,6.751649,0.0,49.84765,24.039736,394.0,NaN,2.124,11.5,0.0,14 / 14,102538,2020-03-21 17:20:04:610
1.752556,-17.501614,-3.801992,0.0,49.84765,24.039736,394.0,NaN,2.124,11.5,0.0,14 / 14,103038,2020-03-21 17:20:05:110
2.331953,-9.744401,-7.40766,0.0,49.84765,24.039736,394.0,NaN,2.124,11.5,0.0,14 / 14,103538,2020-03-21 17:20:05:610
3.222596,-8.920795,-3.08852,0.0,49.84765,24.039736,394.0,NaN,2.124,11.5,0.0,14 / 14,104039,2020-03-21 17:20:06:111
-3.457227,-2.715025,0.148441,0.0,49.84765,24.039736,394.0,NaN,2.124,11.5,0.0,14 / 14,104538,2020-03-21 17:20:06:610
2.264915,-9.931149,-4.659116,0.0,49.84765,24.039736,394.0,NaN,2.124,11.5,0.0,14 / 14,105038,2020-03-21 17:20:07:110
0.9912,-10.903194,-8.183381,0.0,49.84765,24.039736,394.0,NaN,2.124,11.5,0.0,14 / 14,105539,2020-03-21 17:20:07:611
2.226608,-8.044517,-2.341529,0.0,49.84765,24.039736,394.0,NaN,2.124,11.5,0.0,14 / 14,106039,2020-03-21 17:20:08:111
-1.647211,-11.851298,6.775591,0.0,49.84765,24.039736,394.0,NaN,2.124,11.5,0.0,14 / 14,106539,2020-03-21 17:20:08:611
8.39886,-13.771448,-2.566584,0.0,49.84765,24.039736,394.0,NaN,2.124,11.5,0.0,14 / 14,107038,2020-03-21 17:20:09:110
2.494758,-10.328587,-8.690952,0.0,49.84765,24.039736,394.0,NaN,2.124,11.5,0.0,14 / 14,107539,2020-03-21 17:20:09:611
0.823605,-7.383718,-3.596091,0.0,49.84765,24.039736,394.0,NaN,2.124,11.5,0.0,14 / 14,108039,2020-03-21 17:20:10:111
-6.224924,-12.23437,-26.230873,0.0,49.84765,24.039736,394.0,NaN,2.124,11.5,0.0,14 / 14,108539,2020-03-21 17:20:10:611
1.273715,-6.502651,-3.572149,0.0,49.84765,24.039736,394.0,NaN,2.124,11.5,0.0,14 / 14,109039,2020-03-21 17:20:11:111
0.723049,-6.871359,-4.079719,0.0,49.84765,24.039736,394.0,NaN,2.124,11.5,0.0,14 / 14,109539,2020-03-21 17:20:11:611
2.226608,-7.575254,-12.555194,0.0,49.84765,24.039736,394.0,NaN,2.124,11.5,0.0,14 / 14,110038,2020-03-21 17:20:12:110
3.284845,-11.96622,-3.892972,0.0,49.84765,24.039736,394.0,NaN,2.124,11.5,0.0,14 / 14,110538,2020-03-21 17:20:12:610
3.945645,-11.760319,-8.09719,0.0,49.84765,24.039736,394.0,NaN,2.124,11.5,0.0,14 / 14,111039,2020-03-21 17:20:13:111
2.801216,-9.32781,-5.133168,0.0,49.84765,24.039736,394.0,NaN,2.124,11.5,0.0,14 / 14,111539,2020-03-21 17:20:13:611
-1.35033,-3.380613,-0.057461,0.0,49.84765,24.039736,394.0,NaN,2.124,11.5,0.0,14 / 14,112039,2020-03-21 17:20:14:111
-0.253785,-6.373365,0.205901,0.0,49.84765,24.039736,394.0,NaN,2.124,11.5,0.0,14 / 14,112538,2020-03-21 17:20:14:610
-1.608903,-6.502651,-3.998317,0.0,49.84765,24.039736,394.0,NaN,2.124,11.5,0.0,14 / 14,113039,2020-03-21 17:20:15:111
1.685518,-10.146626,-1.115698,0.0,49.84765,24.039736,394.0,NaN,2.124,11.5,0.0,14 / 14,113539,2020-03-21 17:20:15:611
-0.474052,-4.13718,-1.249773,0.0,49.84765,24.039736,394.0,NaN,2.124,11.5,0.0,14 / 14,114039,2020-03-21 17:20:16:111
-0.761356,-9.203311,-2.178723,0.0,49.84765,24.039736,394.0,NaN,2.124,11.5,0.0,14 / 14,114539,2020-03-21 17:20:16:611
-1.278504,-4.141969,0.253785,0.0,49.84765,24.039736,394.0,NaN,2.124,11.5,0.0,14 / 14,115039,2020-03-21 17:20:17:111
-0.3304,-6.105214,-3.284845,0.0,49.84765,24.039736,394.0,NaN,2.124,11.5,0.0,14 / 14,115538,2020-03-21 17:20:17:610
1.455675,-7.479486,-3.864241,0.0,49.84765,24.039736,394.0,NaN,2.124,11.5,0.0,14 / 14,116039,2020-03-21 17:20:18:111
1.613692,-9.150639,-4.151545,0.0,49.84765,24.039736,394.0,NaN,2.124,11.5,0.0,14 / 14,116539,2020-03-21 17:20:18:611
1.216255,-9.792285,0.636858,0.0,49.84765,24.039736,394.0,NaN,2.124,11.5,0.0,14 / 14,117039,2020-03-21 17:20:19:111
-2.54743,-7.086837,-2.585738,0.0,49.84765,24.039736,394.0,NaN,2.124,11.5,0.0,14 / 14,117538,2020-03-21 17:20:19:610
-1.206678,-9.433155,-2.202665,0.0,49.84765,24.039736,394.0,NaN,2.124,11.5,0.0,14 / 14,118038,2020-03-21 17:20:20:110
-3.102885,-4.644751,-2.456451,0.0,49.84765,24.039736,394.0,NaN,2.124,11.5,0.0,14 / 14,118539,2020-03-21 17:20:20:611
0.282516,-9.251195,-0.933739,0.0,49.84765,24.039736,394.0,NaN,2.124,11.5,0.0,14 / 14,119039,2020-03-21 17:20:21:111
-3.20823,-4.711789,0.885855,0.0,49.84765,24.039736,394.0,NaN,2.124,11.5,0.0,14 / 14,119539,2020-03-21 17:20:21:611
2.418144,-8.571242,-1.675941,0.0,49.84765,24.039736,394.0,NaN,2.124,11.5,0.0,14 / 14,120039,2020-03-21 17:20:22:111
-5.861006,-6.397307,-3.375824,0.0,49.84765,24.039736,394.0,NaN,2.124,11.5,0.0,14 / 14,120538,2020-03-21 17:20:22:610
2.959233,-6.081272,-3.136404,0.0,49.84765,24.039736,394.0,NaN,2.124,11.5,0.0,14 / 14,121039,2020-03-21 17:20:23:111
-7.805097,-8.365341,-2.130839,0.0,49.84765,24.039736,394.0,NaN,2.124,11.5,0.0,14 / 14,121539,2020-03-21 17:20:23:611
-0.842759,-6.119579,-1.61848,0.0,49.84765,24.039736,394.0,NaN,2.124,11.5,0.0,14 / 14,122039,2020-03-21 17:20:24:111
-1.814805,-7.259219,-1.043872,0.0,49.84765,24.039736,394.0,NaN,2.124,11.5,0.0,14 / 14,122539,2020-03-21 17:20:24:611
-0.617704,-6.301539,-1.067814,0.0,49.84765,24.039736,394.0,NaN,2.124,11.5,0.0,14 / 14,123039,2020-03-21 17:20:25:111
-1.685518,-8.403648,0.550666,0.0,49.84765,24.039736,394.0,NaN,2.124,11.5,0.0,14 / 14,123538,2020-03-21 17:20:25:610
2.48997,-15.964537,-0.837971,0.0,49.84765,24.039736,394.0,NaN,2.124,11.5,0.0,14 / 14,124039,2020-03-21 17:20:26:111
-0.483629,-15.078682,-6.253655,0.0,49.84765,24.039736,394.0,NaN,2.124,11.5,0.0,14 / 14,124539,2020-03-21 17:20:26:611
-2.633622,-17.927782,-5.453991,0.0,49.84765,24.039736,394.0,NaN,2.124,11.5,0.0,14 / 14,125039,2020-03-21 17:20:27:111
-2.312799,-15.825673,9.706094,0.0,49.84765,24.039736,394.0,NaN,2.124,11.5,0.0,14 / 14,125539,2020-03-21 17:20:27:611
-0.627281,-14.772224,-5.382165,0.0,49.84765,24.039736,394.0,NaN,2.124,11.5,0.0,14 / 14,126038,2020-03-21 17:20:28:110
2.466028,-6.856993,-4.477157,0.0,49.84765,24.039736,394.0,NaN,2.124,11.5,0.0,14 / 14,126538,2020-03-21 17:20:28:610
-4.67827,-6.397307,-3.993528,0.0,49.84765,24.039736,394.0,NaN,2.124,11.5,0.0,14 / 14,127039,2020-03-21 17:20:29:111
-1.838747,-9.935937,-3.107674,0.0,49.84765,24.039736,394.0,NaN,2.124,11.5,0.0,14 / 14,127538,2020-03-21 17:20:29:610
0.325611,-8.619126,-3.442862,0.0,49.84765,24.039736,394.0,NaN,2.124,11.5,0.0,14 / 14,128039,2020-03-21 17:20:30:111
-2.604891,-4.180276,-2.652775,0.0,49.84765,24.039736,394.0,NaN,2.124,11.5,0.0,14 / 14,128539,2020-03-21 17:20:30:611
-2.700659,-13.340492,-3.912125,0.0,49.84765,24.039736,394.0,NaN,2.124,11.5,0.0,14 / 14,129039,2020-03-21 17:20:31:111
1.642422,-8.130708,-8.681376,0.0,49.84765,24.039736,394.0,NaN,2.124,11.5,0.0,14 / 14,129539,2020-03-21 17:20:31:611
2.930503,-8.51857,-2.236184,0.0,49.84765,24.039736,394.0,NaN,2.124,11.5,0.0,14 / 14,130039,2020-03-21 17:20:32:111
-0.943315,-0.943315,0.842759,0.0,49.84765,24.039736,394.0,NaN,2.124,11.5,0.0,14 / 14,130539,2020-03-21 17:20:32:611
-0.057461,-7.536947,-3.112462,0.0,49.84765,24.039736,394.0,NaN,2.124,11.5,0.0,14 / 14,131039,2020-03-21 17:20:33:111
-2.240973,-4.735731,-0.804452,0.0,49.84765,24.039736,394.0,NaN,2.124,11.5,0.0,14 / 14,131539,2020-03-21 17:20:33:611
0.483629,-8.561666,-3.653552,0.0,49.84765,24.039736,394.0,NaN,2.124,11.5,0.0,14 / 14,132038,2020-03-21 17:20:34:110
8.2169,-11.386824,-0.100556,0.0,49.84765,24.039736,394.0,NaN,2.124,11.5,0.0,14 / 14,132539,2020-03-21 17:20:34:611
-0.124498,-9.442732,-0.842759,0.0,49.84765,24.039736,394.0,NaN,2.124,11.5,0.0,14 / 14,133039,2020-03-21 17:20:35:111
2.657564,-10.381259,0.665588,0.0,49.84765,24.039736,394.0,NaN,2.124,11.5,0.0,14 / 14,133538,2020-03-21 17:20:35:610
1.383849,-16.093824,-1.479617,0.0,49.84765,24.039736,394.0,NaN,2.124,11.5,0.0,14 / 14,134039,2020-03-21 17:20:36:111
1.771709,-13.642161,-8.920795,0.0,49.84765,24.039736,394.0,NaN,2.124,11.5,0.0,14 / 14,134538,2020-03-21 17:20:36:610
1.024718,-5.295974,-1.484405,0.0,49.84765,24.039736,394.0,NaN,2.124,11.5,0.0,14 / 14,135039,2020-03-21 17:20:37:111
2.628834,-4.697424,-3.892972,0.0,49.84765,24.039736,394.0,NaN,2.124,11.5,0.0,14 / 14,135539,2020-03-21 17:20:37:611
2.422932,-4.544194,1.604115,0.0,49.84765,24.039736,394.0,NaN,2.124,11.5,0.0,14 / 14,136038,2020-03-21 17:20:38:110
-0.229843,-7.383718,-6.809109,0.0,49.84765,24.039736,394.0,NaN,2.124,11.5,0.0,14 / 14,136539,2020-03-21 17:20:38:611
2.949657,-13.354857,-3.998317,0.0,49.84765,24.039736,394.0,NaN,2.124,11.5,0.0,14 / 14,137039,2020-03-21 17:20:39:111
1.134852,-5.291186,-4.3766,0.0,49.84765,24.039736,394.0,NaN,2.124,11.5,0.0,14 / 14,137539,2020-03-21 17:20:39:611
-0.536301,-6.215348,-6.378153,0.0,49.84765,24.039736,394.0,NaN,2.124,11.5,0.0,14 / 14,138038,2020-03-21 17:20:40:110
2.48997,-7.809886,-3.672705,0.0,49.84765,24.039736,394.0,NaN,2.124,11.5,0.0,14 / 14,138538,2020-03-21 17:20:40:610
2.686294,-16.46732,-2.336741,0.0,49.84765,24.039736,394.0,NaN,2.124,11.5,0.0,14 / 14,139038,2020-03-21 17:20:41:110
2.595315,-15.524004,-2.437297,0.0,49.84765,24.039736,394.0,NaN,2.124,11.5,0.0,14 / 14,139539,2020-03-21 17:20:41:611
-6.186617,-13.532028,-3.155558,0.0,49.84765,24.039736,394.0,NaN,2.124,11.5,0.0,0 / 0,140039,2020-03-21 17:20:42:111
-0.536301,-11.386824,-12.243947,0.0,49.846767,24.039202,380.6,NaN,,25.811,,0 / 0,140539,2020-03-21 17:20:42:611
-5.228936,-7.862558,-3.323152,0.0,49.846767,24.039202,380.6,NaN,,25.811,,0 / 1,141038,2020-03-21 17:20:43:110
0.316035,-8.226476,-2.590526,0.0,49.846767,24.039202,380.6,NaN,,25.811,,0 / 1,141539,2020-03-21 17:20:43:611
1.01993,-9.423578,-5.741296,0.0,49.846767,24.039202,380.6,NaN,,25.811,,0 / 5,142039,2020-03-21 17:20:44:111
-0.627281,-8.944737,-6.315904,0.0,49.846767,24.039202,380.6,NaN,,25.811,,0 / 8,142539,2020-03-21 17:20:44:611
-1.082179,-5.779603,-0.483629,0.0,49.846767,24.039202,380.6,NaN,,25.811,,0 / 8,143038,2020-03-21 17:20:45:110
1.460463,-11.267113,-1.340753,0.0,49.846767,24.039202,380.6,NaN,,25.811,,0 / 8,143539,2020-03-21 17:20:45:611
-3.835511,-12.253524,8.130709,0.0,49.846767,24.039202,380.6,NaN,,25.811,,0 / 8,144039,2020-03-21 17:20:46:111
1.776498,-7.091625,0.636858,0.0,49.84706,24.038984,392.0,NaN,4.464,12.0,317.4,13 / 13,144538,2020-03-21 17:20:46:610
14.164097,-11.554418,5.99987,0.0,49.84706,24.038984,392.0,NaN,4.464,12.0,317.4,13 / 13,145038,2020-03-21 17:20:47:110
10.864887,-1.446098,5.295975,0.0,49.84706,24.038984,392.0,NaN,4.464,12.0,317.4,13 / 13,145538,2020-03-21 17:20:47:610
9.064447,-3.050213,15.011644,8.0,49.84706,24.038984,392.0,NaN,4.464,12.0,317.4,13 / 13,146039,2020-03-21 17:20:48:111
6.871359,-2.738967,11.865664,8.0,49.84706,24.038984,392.0,NaN,4.464,12.0,317.4,13 / 13,146539,2020-03-21 17:20:48:611
5.521029,-0.158017,10.16578,8.0,49.84706,24.038984,392.0,NaN,4.464,12.0,317.4,13 / 13,147038,2020-03-21 17:20:49:110
3.394978,0.09098,5.243302,8.0,49.84706,24.038984,392.0,NaN,4.464,12.0,317.4,13 / 13,147539,2020-03-21 17:20:49:611
2.499547,1.034295,8.508993,8.0,49.84706,24.038984,392.0,NaN,4.464,12.0,317.4,13 / 13,148039,2020-03-21 17:20:50:111
-2.643199,1.848324,9.260772,8.0,49.84706,24.038984,392.0,NaN,4.464,12.0,317.4,13 / 13,148539,2020-03-21 17:20:50:611