ACCELEROMETER X (m/s²),ACCELEROMETER Y (m/s²),ACCELEROMETER Z (m/s²),PROXIMITY (m),LOCATION Latitude : ,LOCATION Longitude : ,LOCATION Altitude ( m),LOCATION Altitude-google ( m),LOCATION Speed ( Kmh),LOCATION Accuracy ( m),LOCATION ORIENTATION (°),Satellites in range,Time since start in ms ,YYYY-MO-DD HH-MI-SS_SSS
10.596737,-3.313575,3.835511,8.0,49.847965,24.03544,365.0,NaN,0.72,22.0,0.0,0 / 2,40,2020-03-20 16:23:26:957
10.31901,-1.915361,6.066907,8.0,49.847965,24.03544,365.0,NaN,0.72,22.0,0.0,0 / 2,540,2020-03-20 16:23:27:457
19.718645,0.708684,5.262456,0.0,49.847965,24.03544,365.0,NaN,0.72,22.0,0.0,0 / 9,1040,2020-03-20 16:23:27:957
8.06846,-1.446098,-2.001553,0.0,49.847965,24.03544,365.0,NaN,0.72,22.0,0.0,0 / 9,1540,2020-03-20 16:23:28:457
2.901773,-2.470816,-0.588974,0.0,49.847965,24.03544,365.0,NaN,0.72,22.0,0.0,0 / 18,2041,2020-03-20 16:23:28:958
5.540183,-3.438074,-2.121263,0.0,49.847965,24.03544,365.0,NaN,0.72,22.0,0.0,0 / 18,2541,2020-03-20 16:23:29:458
-0.392649,-4.232949,-1.37906,0.0,49.848156,24.035658,386.0,NaN,2.16,9.0,93.4,18 / 19,3040,2020-03-20 16:23:29:957
2.274492,-3.002329,0.718261,0.0,49.848156,24.035658,386.0,NaN,2.16,9.0,93.4,18 / 19,3541,2020-03-20 16:23:30:458
4.10845,-5.262455,1.005565,0.0,49.848156,24.035658,386.0,NaN,2.16,9.0,93.4,18 / 19,4040,2020-03-20 16:23:30:957
5.434838,-7.560889,-5.760449,0.0,49.848156,24.035658,386.0,NaN,2.16,9.0,93.4,18 / 19,4540,2020-03-20 16:23:31:457
6.062119,-10.132261,-4.817134,0.0,49.848156,24.035658,386.0,NaN,2.16,9.0,93.4,18 / 19,5040,2020-03-20 16:23:31:957
11.022904,-7.781155,-2.030283,0.0,49.848156,24.035658,386.0,NaN,2.16,9.0,93.4,18 / 19,5541,2020-03-20 16:23:32:458
9.332599,-15.169662,-3.495534,0.0,49.848156,24.035658,386.0,NaN,2.16,9.0,93.4,18 / 19,6041,2020-03-20 16:23:32:958
6.129156,-6.751649,-1.082179,0.0,49.848156,24.035658,386.0,NaN,2.16,9.0,93.4,18 / 19,6541,2020-03-20 16:23:33:458
2.734178,-4.362235,-4.458003,0.0,49.848156,24.035658,386.0,NaN,2.16,9.0,93.4,18 / 19,7040,2020-03-20 16:23:33:957
7.010223,-7.900865,-2.394202,0.0,49.848156,24.035658,386.0,NaN,2.16,9.0,93.4,18 / 19,7540,2020-03-20 16:23:34:457
3.409343,-6.378153,-1.671153,0.0,49.848156,24.035658,386.0,NaN,2.16,9.0,93.4,18 / 19,8041,2020-03-20 16:23:34:958
7.034165,-6.162675,1.225831,0.0,49.848156,24.035658,386.0,NaN,2.16,9.0,93.4,18 / 19,8541,2020-03-20 16:23:35:458
6.354212,-7.642292,-0.253785,0.0,49.848156,24.035658,386.0,NaN,2.16,9.0,93.4,18 / 19,9041,2020-03-20 16:23:35:958
7.733272,-12.421119,1.264139,0.0,49.848156,24.035658,386.0,NaN,2.16,9.0,93.4,18 / 19,9540,2020-03-20 16:23:36:457
0.545878,-6.129156,-0.675165,0.0,49.848156,24.035658,386.0,NaN,2.16,9.0,93.4,18 / 19,10041,2020-03-20 16:23:36:958
5.530606,-5.315128,-4.548983,0.0,49.848156,24.035658,386.0,NaN,2.16,9.0,93.4,18 / 19,10541,2020-03-20 16:23:37:458
5.583278,-15.490485,-2.245761,0.0,49.848156,24.035658,386.0,NaN,2.16,9.0,93.4,18 / 19,11041,2020-03-20 16:23:37:958
7.192182,-5.57849,-2.48997,0.0,49.848156,24.035658,386.0,NaN,2.16,9.0,93.4,18 / 19,11540,2020-03-20 16:23:38:457
7.105991,-12.502522,-3.74932,0.0,49.848156,24.035658,386.0,NaN,2.16,9.0,93.4,18 / 19,12041,2020-03-20 16:23:38:958
6.114791,-15.241488,-6.435614,0.0,49.848156,24.035658,386.0,NaN,2.16,9.0,93.4,18 / 19,12540,2020-03-20 16:23:39:457
11.525687,-6.981492,-2.140416,0.0,49.848156,24.035658,386.0,NaN,2.16,9.0,93.4,18 / 19,13040,2020-03-20 16:23:39:957
11.621455,-14.580688,-4.362235,0.0,49.848156,24.035658,386.0,NaN,2.16,9.0,93.4,18 / 19,13540,2020-03-20 16:23:40:457
-0.684742,-13.666103,-15.974113,0.0,49.848156,24.035658,386.0,NaN,2.16,9.0,93.4,18 / 19,14041,2020-03-20 16:23:40:958
7.867347,-15.524004,-4.386177,0.0,49.848156,24.035658,386.0,NaN,2.16,9.0,93.4,18 / 19,14541,2020-03-20 16:23:41:458
4.027047,-5.674258,-9.548077,0.0,49.848156,24.035658,386.0,NaN,2.16,9.0,93.4,18 / 19,15040,2020-03-20 16:23:41:957
6.397307,-5.621585,-4.390966,0.0,49.848156,24.035658,386.0,NaN,2.16,9.0,93.4,18 / 19,15540,2020-03-20 16:23:42:457
-1.608903,-2.552219,1.359907,0.0,49.848156,24.035658,386.0,NaN,2.16,9.0,93.4,18 / 19,16041,2020-03-20 16:23:42:958
2.8491,-3.983951,-2.207454,0.0,49.848156,24.035658,386.0,NaN,2.16,9.0,93.4,18 / 19,16541,2020-03-20 16:23:43:458
0.545878,-3.830723,0.373495,0.0,49.848156,24.035658,386.0,NaN,2.16,9.0,93.4,18 / 19,17041,2020-03-20 16:23:43:958
0.392649,-3.064578,-0.493206,0.0,49.848156,24.035658,386.0,NaN,2.16,9.0,93.4,18 / 19,17540,2020-03-20 16:23:44:457
2.427721,1.211466,-3.414132,0.0,49.848156,24.035658,386.0,NaN,2.16,9.0,93.4,18 / 19,18040,2020-03-20 16:23:44:957
13.498509,-14.33648,-9.26556,0.0,49.848156,24.035658,386.0,NaN,2.16,9.0,93.4,18 / 19,18540,2020-03-20 16:23:45:457
8.231265,-9.02614,-1.364695,0.0,49.848156,24.035658,386.0,NaN,2.16,9.0,93.4,18 / 19,19041,2020-03-20 16:23:45:958
10.400413,-15.782578,-4.606444,0.0,49.848156,24.035658,386.0,NaN,2.16,9.0,93.4,18 / 19,19540,2020-03-20 16:23:46:457
37.30645,-37.81881,-31.852457,0.0,49.848156,24.035658,386.0,NaN,2.16,9.0,93.4,18 / 19,20040,2020-03-20 16:23:46:957
11.568783,-6.138733,-0.584185,0.0,49.848156,24.035658,386.0,NaN,2.16,9.0,93.4,18 / 19,20540,2020-03-20 16:23:47:457
9.193734,-8.350976,-3.562572,0.0,49.848156,24.035658,386.0,NaN,2.16,9.0,93.4,18 / 19,21041,2020-03-20 16:23:47:958
17.33402,-11.87524,-12.076353,0.0,49.848156,24.035658,386.0,NaN,2.16,9.0,93.4,18 / 19,21540,2020-03-20 16:23:48:457
10.888829,-10.424355,-3.232172,0.0,49.848156,24.035658,386.0,NaN,2.16,9.0,93.4,18 / 19,22040,2020-03-20 16:23:48:957
4.271256,-6.023811,-2.27928,0.0,49.848156,24.035658,386.0,NaN,2.16,9.0,93.4,18 / 19,22540,2020-03-20 16:23:49:457
8.327033,-8.327033,0.253785,0.0,49.848156,24.035658,386.0,NaN,2.16,9.0,93.4,18 / 19,23041,2020-03-20 16:23:49:958
5.090073,-4.644751,-1.833958,0.0,49.848156,24.035658,386.0,NaN,2.16,9.0,93.4,18 / 19,23540,2020-03-20 16:23:50:457
10.778696,-9.346964,-2.499546,0.0,49.848156,24.035658,386.0,NaN,2.16,9.0,93.4,18 / 19,24040,2020-03-20 16:23:50:957
7.896077,-5.521029,-4.151545,0.0,49.848156,24.035658,386.0,NaN,2.16,9.0,93.4,18 / 19,24541,2020-03-20 16:23:51:458
4.414908,-19.809626,7.000646,0.0,49.848156,24.035658,386.0,NaN,2.16,9.0,93.4,18 / 19,25041,2020-03-20 16:23:51:958
10.079589,-13.532028,-4.390966,0.0,49.848156,24.035658,386.0,NaN,2.16,9.0,93.4,18 / 19,25541,2020-03-20 16:23:52:458
10.596737,-9.935937,-0.962469,0.0,49.848156,24.035658,386.0,NaN,2.16,9.0,93.4,18 / 19,26040,2020-03-20 16:23:52:957
4.213795,-11.51611,-2.063802,0.0,49.848156,24.035658,386.0,NaN,2.16,9.0,93.4,18 / 19,26540,2020-03-20 16:23:53:457
12.306197,-5.3678,1.900996,0.0,49.848156,24.035658,386.0,NaN,2.16,9.0,93.4,18 / 19,27040,2020-03-20 16:23:53:957
10.888829,-17.51598,-8.197746,0.0,49.848156,24.035658,386.0,NaN,2.16,9.0,93.4,18 / 19,27541,2020-03-20 16:23:54:458
8.384495,-11.707646,0.11971,0.0,49.848156,24.035658,386.0,NaN,2.16,9.0,93.4,18 / 19,28041,2020-03-20 16:23:54:958
1.637634,-2.825158,2.346318,0.0,49.848156,24.035658,386.0,NaN,2.16,9.0,93.4,18 / 19,28540,2020-03-20 16:23:55:457
8.30788,-6.703765,2.30801,0.0,49.848156,24.035658,386.0,NaN,2.16,9.0,93.4,18 / 19,29040,2020-03-20 16:23:55:957
4.52983,-5.722142,-2.748543,0.0,49.848156,24.035658,386.0,NaN,2.16,9.0,93.4,18 / 19,29540,2020-03-20 16:23:56:457
-1.149217,-5.770026,1.752556,0.0,49.848156,24.035658,386.0,NaN,2.16,9.0,93.4,18 / 19,30040,2020-03-20 16:23:56:957
16.955736,-5.880159,-9.361329,0.0,49.848156,24.035658,386.0,NaN,2.16,9.0,93.4,18 / 19,30540,2020-03-20 16:23:57:457
6.296751,-12.26789,-14.255077,0.0,49.848156,24.035658,386.0,NaN,2.16,9.0,93.4,18 / 19,31040,2020-03-20 16:23:57:957
0.153229,-2.006341,2.255338,0.0,49.848156,24.035658,386.0,NaN,2.16,9.0,93.4,18 / 19,31541,2020-03-20 16:23:58:458
0.430956,-4.726154,0.469264,0.0,49.848156,24.035658,386.0,NaN,2.16,9.0,93.4,18 / 19,32041,2020-03-20 16:23:58:958
5.209783,-5.674258,-2.671929,0.0,49.848156,24.035658,386.0,NaN,2.16,9.0,93.4,18 / 19,32541,2020-03-20 16:23:59:458
-0.167594,-2.049437,0.3304,0.0,49.848156,24.035658,386.0,NaN,2.16,9.0,93.4,18 / 19,33040,2020-03-20 16:23:59:957
5.951986,-11.066,0.488417,0.0,49.848156,24.035658,386.0,NaN,2.16,9.0,93.4,18 / 19,33540,2020-03-20 16:24:00:457
9.643845,-1.484405,3.643975,0.0,49.848156,24.035658,386.0,NaN,2.16,9.0,93.4,18 / 19,34040,2020-03-20 16:24:00:957
7.781156,-6.157887,0.59855,0.0,49.848156,24.035658,386.0,NaN,2.16,9.0,93.4,18 / 19,34540,2020-03-20 16:24:01:457
-0.268151,-4.194641,0.608127,0.0,49.848156,24.035658,386.0,NaN,2.16,9.0,93.4,18 / 19,35041,2020-03-20 16:24:01:958
6.038177,-8.561666,-2.94008,0.0,49.848156,24.035658,386.0,NaN,2.16,9.0,93.4,18 / 19,35541,2020-03-20 16:24:02:458
5.109226,-5.176264,-3.864241,0.0,49.848156,24.035658,386.0,NaN,2.16,9.0,93.4,18 / 19,36040,2020-03-20 16:24:02:957
11.358093,-9.643845,6.641516,0.0,49.848156,24.035658,386.0,NaN,2.16,9.0,93.4,18 / 19,36540,2020-03-20 16:24:03:457
7.034165,-15.456966,-8.159439,0.0,49.848156,24.035658,386.0,NaN,2.16,9.0,93.4,18 / 19,37040,2020-03-20 16:24:03:957
14.580688,-11.583148,5.176265,0.0,49.848156,24.035658,386.0,NaN,2.16,9.0,93.4,18 / 19,37541,2020-03-20 16:24:04:458
6.200983,-10.773908,-14.144943,0.0,49.848156,24.035658,386.0,NaN,2.16,9.0,93.4,18 / 19,38041,2020-03-20 16:24:04:958
6.335058,-8.992621,-0.378284,0.0,49.848156,24.035658,386.0,NaN,2.16,9.0,93.4,18 / 19,38540,2020-03-20 16:24:05:457
12.952631,-7.201759,-6.737283,0.0,49.848156,24.035658,386.0,NaN,2.16,9.0,93.4,18 / 19,39040,2020-03-20 16:24:05:957
6.454768,-9.782708,-0.68953,0.0,49.848156,24.035658,386.0,NaN,2.16,9.0,93.4,18 / 19,39540,2020-03-20 16:24:06:457
15.581465,-3.323152,4.563349,0.0,49.848156,24.035658,386.0,NaN,2.16,9.0,93.4,18 / 19,40040,2020-03-20 16:24:06:957
11.008539,-12.291832,6.531382,0.0,49.848156,24.035658,386.0,NaN,2.16,9.0,93.4,18 / 19,40540,2020-03-20 16:24:07:457
-0.320823,-18.004396,-2.987964,0.0,49.848156,24.035658,386.0,NaN,2.16,9.0,93.4,18 / 19,41040,2020-03-20 16:24:07:957
4.448427,-9.246407,-6.119579,0.0,49.848156,24.035658,386.0,NaN,2.16,9.0,93.4,18 / 19,41541,2020-03-20 16:24:08:458
-0.972046,-5.942408,2.327164,0.0,49.848156,24.035658,386.0,NaN,2.16,9.0,93.4,18 / 19,42041,2020-03-20 16:24:08:958
0.608127,-2.916138,-1.546654,0.0,49.848156,24.035658,386.0,NaN,2.16,9.0,93.4,18 / 19,42540,2020-03-20 16:24:09:457
6.071696,-4.323928,-4.443638,0.0,49.848156,24.035658,386.0,NaN,2.16,9.0,93.4,18 / 19,43040,2020-03-20 16:24:09:957
1.326388,-2.5187,1.508347,0.0,49.848156,24.035658,386.0,NaN,2.16,9.0,93.4,18 / 19,43540,2020-03-20 16:24:10:457
3.016694,-3.744531,-3.864241,0.0,49.848156,24.035658,386.0,NaN,2.16,9.0,93.4,18 / 19,44040,2020-03-20 16:24:10:957
3.993528,-12.694057,5.477934,0.0,49.848156,24.035658,386.0,NaN,2.16,9.0,93.4,18 / 19,44541,2020-03-20 16:24:11:458
8.255207,-7.608773,-4.802768,0.0,49.848156,24.035658,386.0,NaN,2.16,9.0,93.4,18 / 19,45041,2020-03-20 16:24:11:958
-6.066907,-4.606444,-26.671408,0.0,49.848156,24.035658,386.0,NaN,2.16,9.0,93.4,18 / 19,45541,2020-03-20 16:24:12:458
8.892065,-8.355764,-0.761356,0.0,49.848156,24.035658,386.0,NaN,2.16,9.0,93.4,18 / 19,46040,2020-03-20 16:24:12:957
1.891419,-5.204994,-5.329493,0.0,49.848156,24.035658,386.0,NaN,2.16,9.0,93.4,18 / 19,46540,2020-03-20 16:24:13:457
9.059659,-8.255207,-12.933477,0.0,49.848156,24.035658,386.0,NaN,2.16,9.0,93.4,18 / 19,47041,2020-03-20 16:24:13:958
-0.842759,-4.036624,0.679953,0.0,49.848156,24.035658,386.0,NaN,2.16,9.0,93.4,18 / 19,47541,2020-03-20 16:24:14:458
2.647987,-9.940725,-0.54109,0.0,49.848156,24.035658,386.0,NaN,2.16,9.0,93.4,18 / 19,48040,2020-03-20 16:24:14:957
4.970363,-15.188815,0.627281,0.0,49.848156,24.035658,386.0,NaN,2.16,9.0,93.4,18 / 19,48540,2020-03-20 16:24:15:457
16.486473,-19.76653,-27.767952,0.0,49.848156,24.035658,386.0,NaN,2.16,9.0,93.4,18 / 19,49040,2020-03-20 16:24:15:957
11.683704,-5.430049,0.392649,0.0,49.848156,24.035658,386.0,NaN,2.16,9.0,93.4,18 / 19,49540,2020-03-20 16:24:16:457
1.063026,-3.533841,-1.431733,0.0,49.848156,24.035658,386.0,NaN,2.16,9.0,93.4,18 / 19,50041,2020-03-20 16:24:16:958
5.57849,-5.200206,-2.145205,0.0,49.848156,24.035658,386.0,NaN,2.16,9.0,93.4,18 / 19,50540,2020-03-20 16:24:17:457
-0.062249,-2.94008,0.191536,0.0,49.848156,24.035658,386.0,NaN,2.16,9.0,93.4,18 / 19,51040,2020-03-20 16:24:17:957
2.365471,-3.86903,-1.584961,0.0,49.848156,24.035658,386.0,NaN,2.16,9.0,93.4,0 / 0,51540,2020-03-20 16:24:18:457
9.169792,-5.961562,-4.43885,0.0,49.848156,24.035658,386.0,NaN,2.16,9.0,93.4,0 / 0,52041,2020-03-20 16:24:18:958
10.338163,-6.555324,1.431733,0.0,49.848156,24.035658,386.0,NaN,2.16,9.0,93.4,0 / 1,52541,2020-03-20 16:24:19:458
9.725247,-12.339716,-0.153229,0.0,49.848156,24.035658,386.0,NaN,2.16,9.0,93.4,0 / 1,53040,2020-03-20 16:24:19:957
4.596867,-8.303091,0.378284,0.0,49.848156,24.035658,386.0,NaN,2.16,9.0,93.4,0 / 6,53540,2020-03-20 16:24:20:457
13.115437,-13.532028,-2.652775,0.0,49.848156,24.035658,386.0,NaN,2.16,9.0,93.4,0 / 6,54041,2020-03-20 16:24:20:958
14.60463,-13.024457,8.686164,0.0,49.848156,24.035658,386.0,NaN,2.16,9.0,93.4,8 / 8,54541,2020-03-20 16:24:21:458
1.877054,-6.301539,-0.004788,0.0,49.848156,24.035658,386.0,NaN,2.16,9.0,93.4,8 / 8,55040,2020-03-20 16:24:21:957
2.212242,-7.378929,-18.191145,0.0,49.848156,24.035658,386.0,NaN,2.16,9.0,93.4,8 / 8,55540,2020-03-20 16:24:22:457
19.033903,-2.375048,-2.901772,0.0,49.848156,24.035658,386.0,NaN,2.16,9.0,93.4,8 / 8,56041,2020-03-20 16:24:22:958
7.273585,-5.300762,6.301539,0.0,49.848156,24.035658,386.0,NaN,2.16,9.0,93.4,8 / 8,56541,2020-03-20 16:24:23:458
8.743625,-5.046977,-2.987964,0.0,49.848156,24.035658,386.0,NaN,2.16,9.0,93.4,8 / 8,57040,2020-03-20 16:24:23:957
8.082825,-7.345411,8.130709,0.0,49.848156,24.035658,386.0,NaN,2.16,9.0,93.4,8 / 8,57540,2020-03-20 16:24:24:457
9.634268,-18.780119,-4.606444,0.0,49.848156,24.035658,386.0,NaN,2.16,9.0,93.4,8 / 8,58040,2020-03-20 16:24:24:957
15.342045,-14.020445,7.958327,0.0,49.848156,24.035658,386.0,NaN,2.16,9.0,93.4,8 / 8,58541,2020-03-20 16:24:25:458
6.751649,-16.82166,-11.358093,0.0,49.848156,24.035658,386.0,NaN,2.16,9.0,93.4,8 / 8,59041,2020-03-20 16:24:25:958
4.826711,-5.3678,0.565032,0.0,49.848156,24.035658,386.0,NaN,2.16,9.0,93.4,8 / 8,59540,2020-03-20 16:24:26:457
-1.25935,-3.275268,-4.103661,0.0,49.848156,24.035658,386.0,NaN,2.16,9.0,93.4,8 / 8,60040,2020-03-20 16:24:26:957
3.687071,-5.094861,1.096544,0.0,49.848156,24.035658,386.0,NaN,2.16,9.0,93.4,8 / 8,60540,2020-03-20 16:24:27:457
1.886631,-6.38773,-1.326388,0.0,49.848156,24.035658,386.0,NaN,2.16,9.0,93.4,8 / 8,61041,2020-03-20 16:24:27:958
5.027824,-12.947843,9.873688,0.0,49.848156,24.035658,386.0,NaN,2.16,9.0,93.4,8 / 8,61541,2020-03-20 16:24:28:458
2.082955,-5.386954,-3.600879,0.0,49.848156,24.035658,386.0,NaN,2.16,9.0,93.4,8 / 8,62040,2020-03-20 16:24:28:957
3.112462,-10.151415,10.453085,0.0,49.848156,24.035658,386.0,NaN,2.16,9.0,93.4,8 / 8,62540,2020-03-20 16:24:29:457
7.910443,-3.284845,3.069367,0.0,49.848156,24.035658,386.0,NaN,2.16,9.0,93.4,8 / 8,63041,2020-03-20 16:24:29:958
4.663905,-8.221688,-2.164358,0.0,49.848156,24.035658,386.0,NaN,2.16,9.0,93.4,8 / 8,63540,2020-03-20 16:24:30:457
5.99987,-3.466804,-0.306458,0.0,49.848156,24.035658,386.0,NaN,2.16,9.0,93.4,8 / 8,64040,2020-03-20 16:24:30:957
4.477157,-4.544194,0.584185,0.0,49.848156,24.035658,386.0,NaN,2.16,9.0,93.4,8 / 8,64540,2020-03-20 16:24:31:457
2.576161,-9.65821,-1.752556,0.0,49.848156,24.035658,386.0,NaN,2.16,9.0,93.4,8 / 8,65041,2020-03-20 16:24:31:958
8.106767,-5.985504,-12.966996,0.0,49.848156,24.035658,386.0,NaN,2.16,9.0,93.4,8 / 8,65541,2020-03-20 16:24:32:458
-0.775721,-7.642292,-3.193865,0.0,49.848156,24.035658,386.0,NaN,2.16,9.0,93.4,8 / 8,66041,2020-03-20 16:24:32:958
2.03986,-9.136273,-0.502782,0.0,49.848156,24.035658,386.0,NaN,2.16,9.0,93.4,8 / 8,66541,2020-03-20 16:24:33:458
-0.272939,-5.932832,-0.339977,0.0,49.848156,24.035658,386.0,NaN,2.16,9.0,93.4,8 / 8,67040,2020-03-20 16:24:33:957
3.845088,-4.898536,0.952892,0.0,49.848156,24.035658,386.0,NaN,2.16,9.0,93.4,8 / 8,67540,2020-03-20 16:24:34:457
5.76045,-6.244078,-0.775721,0.0,49.848156,24.035658,386.0,NaN,2.16,9.0,93.4,8 / 8,68041,2020-03-20 16:24:34:958
7.015011,-4.113238,-5.947197,0.0,49.848156,24.035658,386.0,NaN,2.16,9.0,93.4,8 / 8,68541,2020-03-20 16:24:35:458
0.651223,-1.49877,1.168371,0.0,49.848156,24.035658,386.0,NaN,2.16,9.0,93.4,8 / 8,69041,2020-03-20 16:24:35:958
5.420473,-5.655104,1.268927,0.0,49.848156,24.035658,386.0,NaN,2.16,9.0,93.4,8 / 8,69540,2020-03-20 16:24:36:457
10.927136,-6.215348,-2.973598,0.0,49.848156,24.035658,386.0,NaN,2.16,9.0,93.4,8 / 8,70040,2020-03-20 16:24:36:957
7.177817,-6.947973,2.269703,0.0,49.848156,24.035658,386.0,NaN,2.16,9.0,93.4,8 / 8,70540,2020-03-20 16:24:37:457
1.484405,-5.0374,-0.392649,0.0,49.848156,24.035658,386.0,NaN,2.16,9.0,93.4,8 / 8,71041,2020-03-20 16:24:37:958
5.272033,-6.622362,-0.574608,0.0,49.848156,24.035658,386.0,NaN,2.16,9.0,93.4,8 / 8,71541,2020-03-20 16:24:38:458
7.062895,-14.537593,-4.491522,0.0,49.848156,24.035658,386.0,NaN,2.16,9.0,93.4,8 / 8,72040,2020-03-20 16:24:38:957
2.643199,-6.488286,-5.329493,0.0,49.848156,24.035658,386.0,NaN,2.16,9.0,93.4,8 / 8,72540,2020-03-20 16:24:39:457
7.316681,-6.033388,1.000776,0.0,49.848156,24.035658,386.0,NaN,2.16,9.0,93.4,8 / 8,73040,2020-03-20 16:24:39:957
-5.51624,-1.671153,2.126051,0.0,49.848156,24.035658,386.0,NaN,2.16,9.0,93.4,8 / 8,73541,2020-03-20 16:24:40:458
3.8403,-4.46758,-0.555455,0.0,49.848156,24.035658,386.0,NaN,2.16,9.0,93.4,8 / 8,74041,2020-03-20 16:24:40:958
1.355118,-4.529829,0.004788,0.0,49.848156,24.035658,386.0,NaN,2.16,9.0,93.4,8 / 8,74541,2020-03-20 16:24:41:458
4.855441,-7.781155,-4.041412,0.0,49.848156,24.035658,386.0,NaN,2.16,9.0,93.4,8 / 8,75041,2020-03-20 16:24:41:958
12.660539,-8.743625,2.738967,0.0,49.848156,24.035658,386.0,NaN,2.16,9.0,93.4,8 / 8,75540,2020-03-20 16:24:42:457
10.903194,-7.058106,-4.793192,0.0,49.848156,24.035658,386.0,NaN,2.16,9.0,93.4,8 / 8,76040,2020-03-20 16:24:42:957
12.023681,-10.34774,-8.532935,0.0,49.848156,24.035658,386.0,NaN,2.16,9.0,93.4,8 / 8,76541,2020-03-20 16:24:43:458
21.423315,-15.279796,-4.242525,0.0,49.848156,24.035658,386.0,NaN,2.16,9.0,93.4,8 / 8,77041,2020-03-20 16:24:43:958
8.762778,-10.496181,1.383849,0.0,49.848156,24.035658,386.0,NaN,2.16,9.0,93.4,8 / 8,77540,2020-03-20 16:24:44:457
-2.863465,-2.288857,3.86903,0.0,49.848156,24.035658,386.0,NaN,2.16,9.0,93.4,8 / 8,78040,2020-03-20 16:24:44:957
10.836157,-6.823475,-3.859453,0.0,49.848156,24.035658,386.0,NaN,2.16,9.0,93.4,8 / 8,78540,2020-03-20 16:24:45:457
3.548207,-8.020575,-7.173028,0.0,49.848156,24.035658,386.0,NaN,2.16,9.0,93.4,8 / 8,79041,2020-03-20 16:24:45:958
16.01721,-8.537724,-2.413355,0.0,49.848156,24.035658,386.0,NaN,2.16,9.0,93.4,8 / 8,79540,2020-03-20 16:24:46:457
7.091625,-6.588843,-10.658986,0.0,49.848156,24.035658,386.0,NaN,2.16,9.0,93.4,8 / 8,80040,2020-03-20 16:24:46:957
4.836288,-3.366248,-1.58975,0.0,49.848156,24.035658,386.0,NaN,2.16,9.0,93.4,8 / 8,80540,2020-03-20 16:24:47:457
7.891289,-0.948104,-11.45865,0.0,49.848156,24.035658,386.0,NaN,2.16,9.0,93.4,8 / 8,81040,2020-03-20 16:24:47:957
11.329363,-13.019669,-4.754884,0.0,49.848156,24.035658,386.0,NaN,2.16,9.0,93.4,8 / 8,81541,2020-03-20 16:24:48:458
7.532159,-9.41879,-6.713341,0.0,49.848156,24.035658,386.0,NaN,2.16,9.0,93.4,8 / 8,82040,2020-03-20 16:24:48:957
7.465121,-6.378153,0.646435,0.0,49.848156,24.035658,386.0,NaN,2.16,9.0,93.4,8 / 8,82541,2020-03-20 16:24:49:458
1.604115,2.777274,-4.49631,0.0,49.848156,24.035658,386.0,NaN,2.16,9.0,93.4,8 / 8,83041,2020-03-20 16:24:49:958
5.085284,-10.601525,-16.989256,0.0,49.848156,24.035658,386.0,NaN,2.16,9.0,93.4,8 / 8,83541,2020-03-20 16:24:50:458
12.488156,-6.320692,-3.792415,0.0,49.848156,24.035658,386.0,NaN,2.16,9.0,93.4,8 / 8,84040,2020-03-20 16:24:50:957
4.434062,-6.799533,-2.197877,0.0,49.848156,24.035658,386.0,NaN,2.16,9.0,93.4,8 / 8,84540,2020-03-20 16:24:51:457
5.726931,-5.147533,-1.201889,0.0,49.848156,24.035658,386.0,NaN,2.16,9.0,93.4,8 / 8,85041,2020-03-20 16:24:51:958
-0.253785,-4.304775,0.617704,0.0,49.848156,24.035658,386.0,NaN,2.16,9.0,93.4,8 / 8,85541,2020-03-20 16:24:52:458
5.176265,-5.372588,2.312799,0.0,49.848156,24.035658,386.0,NaN,2.16,9.0,93.4,8 / 8,86041,2020-03-20 16:24:52:958
-3.246537,-6.105214,0.215478,0.0,49.848156,24.035658,386.0,NaN,2.16,9.0,93.4,8 / 8,86540,2020-03-20 16:24:53:457
6.722919,-7.125144,-1.704672,0.0,49.848156,24.035658,386.0,NaN,2.16,9.0,93.4,8 / 8,87040,2020-03-20 16:24:53:957
7.541735,-5.875371,-2.346318,0.0,49.848156,24.035658,386.0,NaN,2.16,9.0,93.4,8 / 8,87540,2020-03-20 16:24:54:457
4.299987,-7.589619,-3.634398,0.0,49.848156,24.035658,386.0,NaN,2.16,9.0,93.4,8 / 8,88040,2020-03-20 16:24:54:957
0.129287,-5.272032,-1.393425,0.0,49.848156,24.035658,386.0,NaN,2.16,9.0,93.4,8 / 8,88541,2020-03-20 16:24:55:458
1.637634,-2.451662,-1.010353,0.0,49.848156,24.035658,386.0,NaN,2.16,9.0,93.4,8 / 8,89041,2020-03-20 16:24:55:958
2.341529,-3.29921,-1.058237,0.0,49.848156,24.035658,386.0,NaN,2.16,9.0,93.4,8 / 8,89540,2020-03-20 16:24:56:457
3.663129,-2.810793,-4.055777,0.0,49.848156,24.035658,386.0,NaN,2.16,9.0,93.4,8 / 8,90040,2020-03-20 16:24:56:957
6.100426,-5.808333,-18.818426,0.0,49.848156,24.035658,386.0,NaN,2.16,9.0,93.4,8 / 8,90540,2020-03-20 16:24:57:457
-0.383072,-6.339846,-2.193089,0.0,49.848156,24.035658,386.0,NaN,2.16,9.0,93.4,8 / 8,91040,2020-03-20 16:24:57:957
7.283162,-15.184027,-5.319916,0.0,49.848156,24.035658,386.0,NaN,2.16,9.0,93.4,8 / 8,91541,2020-03-20 16:24:58:458
3.816358,-12.962208,-2.753332,0.0,49.848156,24.035658,386.0,NaN,2.16,9.0,93.4,8 / 8,92041,2020-03-20 16:24:58:958
5.961562,-3.811569,2.255338,0.0,49.848156,24.035658,386.0,NaN,2.16,9.0,93.4,8 / 8,92540,2020-03-20 16:24:59:457
9.188946,-10.807426,-1.728614,0.0,49.848156,24.035658,386.0,NaN,2.16,9.0,93.4,8 / 8,93040,2020-03-20 16:24:59:957
13.340492,-2.724601,13.79539,0.0,49.848156,24.035658,386.0,NaN,2.16,9.0,93.4,8 / 8,93541,2020-03-20 16:25:00:458
6.526594,-11.774684,-10.280702,0.0,49.848156,24.035658,386.0,NaN,2.16,9.0,93.4,8 / 8,94040,2020-03-20 16:25:00:957
24.665066,-9.916783,-8.652645,0.0,49.848156,24.035658,386.0,NaN,2.16,9.0,93.4,8 / 8,94540,2020-03-20 16:25:01:457
-1.996764,-12.732365,-5.324704,0.0,49.848156,24.035658,386.0,NaN,2.16,9.0,93.4,8 / 8,95041,2020-03-20 16:25:01:958
12.081141,-11.137826,4.951209,0.0,49.848156,24.035658,386.0,NaN,2.16,9.0,93.4,8 / 8,95540,2020-03-20 16:25:02:457
1.23062,-6.933608,0.229843,0.0,49.848156,24.035658,386.0,NaN,2.16,9.0,93.4,8 / 8,96040,2020-03-20 16:25:02:957
2.652776,-4.960786,0.100556,0.0,49.848156,24.035658,386.0,NaN,2.16,9.0,93.4,8 / 8,96541,2020-03-20 16:25:03:458
-2.025495,-6.794744,0.555455,0.0,49.848156,24.035658,386.0,NaN,2.16,9.0,93.4,8 / 8,97041,2020-03-20 16:25:03:958
4.946421,-8.963891,0.847547,0.0,49.848156,24.035658,386.0,NaN,2.16,9.0,93.4,8 / 8,97540,2020-03-20 16:25:04:457
12.018892,-7.704541,-1.996764,0.0,49.848156,24.035658,386.0,NaN,2.16,9.0,93.4,8 / 8,98040,2020-03-20 16:25:04:957
5.214572,-5.386954,-5.760449,0.0,49.848156,24.035658,386.0,NaN,2.16,9.0,93.4,8 / 8,98541,2020-03-20 16:25:05:458
6.406884,-8.001422,-6.028599,0.0,49.848156,24.035658,386.0,NaN,2.16,9.0,93.4,8 / 8,99040,2020-03-20 16:25:05:957
-2.442086,-1.015141,0.785298,0.0,49.848156,24.035658,386.0,NaN,2.16,9.0,93.4,8 / 8,99540,2020-03-20 16:25:06:457
4.812346,-7.345411,-4.91769,0.0,49.848156,24.035658,386.0,NaN,2.16,9.0,93.4,8 / 8,100041,2020-03-20 16:25:06:958
7.359776,-9.485827,-4.711789,0.0,49.848156,24.035658,386.0,NaN,2.16,9.0,93.4,8 / 8,100540,2020-03-20 16:25:07:457
5.741296,-0.972046,-12.564771,0.0,49.848156,24.035658,386.0,NaN,2.16,9.0,93.4,8 / 8,101040,2020-03-20 16:25:07:957
10.04607,-14.408306,-7.264008,0.0,49.848156,24.035658,386.0,NaN,2.16,9.0,93.4,8 / 8,101541,2020-03-20 16:25:08:458
9.792285,-12.761095,-11.310209,0.0,49.848156,24.035658,386.0,NaN,2.16,9.0,93.4,8 / 8,102041,2020-03-20 16:25:08:958
8.18817,-12.919112,-0.785298,0.0,49.848156,24.035658,386.0,NaN,2.16,9.0,93.4,8 / 8,102540,2020-03-20 16:25:09:457
-2.111686,0.483629,0.258574,0.0,49.848156,24.035658,386.0,NaN,2.16,9.0,93.4,8 / 8,103040,2020-03-20 16:25:09:957
4.802769,-0.114922,-1.637634,0.0,49.848156,24.035658,386.0,NaN,2.16,9.0,93.4,8 / 8,103540,2020-03-20 16:25:10:457
3.744532,-7.809886,-6.933608,0.0,49.848156,24.035658,386.0,NaN,2.16,9.0,93.4,8 / 8,104040,2020-03-20 16:25:10:957
-4.252102,-7.613561,6.181829,0.0,49.848156,24.035658,386.0,NaN,2.16,9.0,93.4,8 / 8,104541,2020-03-20 16:25:11:458
0.416591,-12.579136,-1.082179,0.0,49.848156,24.035658,386.0,NaN,2.16,9.0,93.4,8 / 8,105041,2020-03-20 16:25:11:958
1.307234,-6.684611,-7.129933,0.0,49.848156,24.035658,386.0,NaN,2.16,9.0,93.4,8 / 8,105540,2020-03-20 16:25:12:457
8.973468,-7.374141,6.114791,0.0,49.848156,24.035658,386.0,NaN,2.16,9.0,93.4,8 / 8,106040,2020-03-20 16:25:12:957
1.44131,-9.107543,-4.22816,0.0,49.848156,24.035658,386.0,NaN,2.16,9.0,93.4,8 / 8,106540,2020-03-20 16:25:13:457
5.961562,-6.291962,-0.895431,0.0,49.848156,24.035658,386.0,NaN,2.16,9.0,93.4,8 / 8,107041,2020-03-20 16:25:13:958
-0.143652,-2.724601,-1.637634,0.0,49.848156,24.035658,386.0,NaN,2.16,9.0,93.4,8 / 8,107540,2020-03-20 16:25:14:457
5.923255,-10.093954,-3.476381,0.0,49.848156,24.035658,386.0,NaN,2.16,9.0,93.4,8 / 8,108040,2020-03-20 16:25:14:957
15.260642,-9.289502,9.232041,0.0,49.848156,24.035658,386.0,NaN,2.16,9.0,93.4,8 / 8,108540,2020-03-20 16:25:15:457
10.548853,-6.991069,-4.367024,0.0,49.848156,24.035658,386.0,NaN,2.16,9.0,93.4,8 / 8,109041,2020-03-20 16:25:15:958
4.668694,-10.79785,-3.476381,0.0,49.848156,24.035658,386.0,NaN,2.16,9.0,93.4,8 / 8,109540,2020-03-20 16:25:16:457
6.71813,-6.311115,-0.933739,0.0,49.848156,24.035658,386.0,NaN,2.16,9.0,93.4,8 / 8,110040,2020-03-20 16:25:16:957
3.380613,-1.446098,-1.163582,0.0,49.848156,24.035658,386.0,NaN,2.16,9.0,93.4,8 / 8,110540,2020-03-20 16:25:17:457
4.783615,-2.561796,-4.462792,0.0,49.848156,24.035658,386.0,NaN,2.16,9.0,93.4,8 / 8,111041,2020-03-20 16:25:17:958
13.953407,-7.206547,-25.129541,0.0,49.848156,24.035658,386.0,NaN,2.16,9.0,93.4,8 / 8,111541,2020-03-20 16:25:18:458
-0.129287,-3.600879,-0.957681,0.0,49.848156,24.035658,386.0,NaN,2.16,9.0,93.4,8 / 8,112040,2020-03-20 16:25:18:957
4.453215,-3.797204,-9.519346,0.0,49.848156,24.035658,386.0,NaN,2.16,9.0,93.4,8 / 8,112540,2020-03-20 16:25:19:457
8.714894,-16.25663,-8.389283,0.0,49.848156,24.035658,386.0,NaN,2.16,9.0,93.4,8 / 8,113041,2020-03-20 16:25:19:958
7.254431,-9.270349,-1.805228,0.0,49.848156,24.035658,386.0,NaN,2.16,9.0,93.4,8 / 8,113540,2020-03-20 16:25:20:457
9.457097,-8.537724,-0.761356,0.0,49.848156,24.035658,386.0,NaN,2.16,9.0,93.4,8 / 8,114040,2020-03-20 16:25:20:957
9.979033,-8.192958,-9.797073,0.0,49.848156,24.035658,386.0,NaN,2.16,9.0,93.4,8 / 8,114540,2020-03-20 16:25:21:457
10.419566,-5.118803,0.608127,0.0,49.848156,24.035658,386.0,NaN,2.16,9.0,93.4,8 / 8,115040,2020-03-20 16:25:21:957
5.305551,-13.522451,4.568137,0.0,49.848156,24.035658,386.0,NaN,2.16,9.0,93.4,8 / 8,115541,2020-03-20 16:25:22:458
9.054871,-4.898536,-1.01993,0.0,49.848156,24.035658,386.0,NaN,2.16,9.0,93.4,8 / 8,116041,2020-03-20 16:25:22:958
8.920795,-17.30529,5.013459,0.0,49.848156,24.035658,386.0,NaN,2.16,9.0,93.4,8 / 8,116541,2020-03-20 16:25:23:458
9.519346,-5.085284,-15.940595,0.0,49.848156,24.035658,386.0,NaN,2.16,9.0,93.4,8 / 8,117040,2020-03-20 16:25:23:957
-1.891419,-7.666234,-7.503428,0.0,49.848156,24.035658,386.0,NaN,2.16,9.0,93.4,8 / 8,117540,2020-03-20 16:25:24:457
5.415684,-8.777143,-6.038176,0.0,49.848156,24.035658,386.0,NaN,2.16,9.0,93.4,8 / 8,118040,2020-03-20 16:25:24:957
3.289633,-6.200982,-1.268927,0.0,49.848156,24.035658,386.0,NaN,2.16,9.0,93.4,8 / 8,118541,2020-03-20 16:25:25:458
11.233594,-11.051635,-6.991069,0.0,49.848156,24.035658,386.0,NaN,2.16,9.0,93.4,8 / 8,119041,2020-03-20 16:25:25:958
6.459556,-3.931279,-16.385916,0.0,49.848156,24.035658,386.0,NaN,2.16,9.0,93.4,8 / 8,119540,2020-03-20 16:25:26:457
7.714118,-14.250289,-6.564901,0.0,49.848156,24.035658,386.0,NaN,2.16,9.0,93.4,8 / 8,120040,2020-03-20 16:25:26:957
16.970102,-23.745693,14.585477,0.0,49.848156,24.035658,386.0,NaN,2.16,9.0,93.4,8 / 8,120541,2020-03-20 16:25:27:458
14.025233,-9.346964,-0.871489,0.0,49.848156,24.035658,386.0,NaN,2.16,9.0,93.4,8 / 8,121040,2020-03-20 16:25:27:957
6.009446,-1.082179,0.100556,0.0,49.848156,24.035658,386.0,NaN,2.16,9.0,93.4,8 / 8,121540,2020-03-20 16:25:28:457
7.240066,-9.615114,-3.600879,0.0,49.848156,24.035658,386.0,NaN,2.16,9.0,93.4,0 / 0,122041,2020-03-20 16:25:28:958
9.504981,-10.539276,-7.943961,0.0,49.848156,24.035658,386.0,NaN,2.16,9.0,93.4,0 / 0,122540,2020-03-20 16:25:29:457
1.61848,-0.11971,12.957419,0.0,49.848156,24.035658,386.0,NaN,2.16,9.0,93.4,0 / 3,123040,2020-03-20 16:25:29:957
2.743755,-9.002198,-7.139509,0.0,49.848156,24.035658,386.0,NaN,2.16,9.0,93.4,0 / 3,123540,2020-03-20 16:25:30:457
3.533842,-0.612916,-1.04866,0.0,49.848156,24.035658,386.0,NaN,2.16,9.0,93.4,0 / 6,124040,2020-03-20 16:25:30:957
10.793061,-18.65562,7.852982,0.0,49.848156,24.035658,386.0,NaN,2.16,9.0,93.4,0 / 6,124541,2020-03-20 16:25:31:458
3.811569,-8.24563,-0.296881,0.0,49.848156,24.035658,386.0,NaN,2.16,9.0,93.4,11 / 14,125040,2020-03-20 16:25:31:957
13.306973,-20.949265,7.565677,0.0,49.848156,24.035658,386.0,NaN,2.16,9.0,93.4,11 / 14,125540,2020-03-20 16:25:32:457
3.643975,-8.959103,-4.611232,0.0,49.848156,24.035658,386.0,NaN,2.16,9.0,93.4,11 / 14,126041,2020-03-20 16:25:32:958
2.408567,-6.569689,-7.211335,0.0,49.848156,24.035658,386.0,NaN,2.16,9.0,93.4,11 / 14,126541,2020-03-20 16:25:33:458
9.169792,-7.240066,9.332599,0.0,49.848156,24.035658,386.0,NaN,2.16,9.0,93.4,11 / 14,127040,2020-03-20 16:25:33:957
1.493982,-3.643975,-0.972046,0.0,49.848156,24.035658,386.0,NaN,2.16,9.0,93.4,11 / 14,127540,2020-03-20 16:25:34:457
1.225831,-7.062895,-6.244078,0.0,49.848156,24.035658,386.0,NaN,2.16,9.0,93.4,11 / 14,128041,2020-03-20 16:25:34:958
15.112201,-5.544971,-15.198392,0.0,49.848156,24.035658,386.0,NaN,2.16,9.0,93.4,11 / 14,128541,2020-03-20 16:25:35:458
10.443508,-9.414001,-7.948749,0.0,49.848156,24.035658,386.0,NaN,2.16,9.0,93.4,11 / 14,129040,2020-03-20 16:25:35:957
11.386824,-12.354081,-22.069752,0.0,49.848156,24.035658,386.0,NaN,2.16,9.0,93.4,11 / 14,129540,2020-03-20 16:25:36:457
9.323022,-17.78413,-4.050989,0.0,49.848156,24.035658,386.0,NaN,2.16,9.0,93.4,11 / 14,130040,2020-03-20 16:25:36:957
3.610456,-4.223372,-3.624821,0.0,49.848156,24.035658,386.0,NaN,2.16,9.0,93.4,11 / 14,130540,2020-03-20 16:25:37:457
6.086061,-8.561666,-0.881066,0.0,49.848156,24.035658,386.0,NaN,2.16,9.0,93.4,11 / 14,131040,2020-03-20 16:25:37:957
-3.600879,-5.267244,-0.244209,0.0,49.848156,24.035658,386.0,NaN,2.16,9.0,93.4,11 / 14,131541,2020-03-20 16:25:38:458
5.798757,-8.743625,3.385401,0.0,49.848156,24.035658,386.0,NaN,2.16,9.0,93.4,11 / 14,132041,2020-03-20 16:25:38:958
-0.387861,-2.652775,1.058237,0.0,49.848156,24.035658,386.0,NaN,2.16,9.0,93.4,11 / 14,132540,2020-03-20 16:25:39:457
4.328717,-4.979939,-3.615245,0.0,49.848156,24.035658,386.0,NaN,2.16,9.0,93.4,11 / 14,133040,2020-03-20 16:25:39:957
6.426038,-8.101978,-17.635689,0.0,49.848156,24.035658,386.0,NaN,2.16,9.0,93.4,11 / 14,133540,2020-03-20 16:25:40:457
2.193089,-7.479486,-3.414132,0.0,49.848156,24.035658,386.0,NaN,2.16,9.0,93.4,11 / 14,134041,2020-03-20 16:25:40:958
5.056554,-6.789956,-0.646434,0.0,49.848156,24.035658,386.0,NaN,2.16,9.0,93.4,11 / 14,134540,2020-03-20 16:25:41:457
2.102109,-3.653552,-0.383072,0.0,49.848156,24.035658,386.0,NaN,2.16,9.0,93.4,11 / 14,135040,2020-03-20 16:25:41:957
3.165135,-4.213795,-3.399766,0.0,49.848156,24.035658,386.0,NaN,2.16,9.0,93.4,11 / 14,135540,2020-03-20 16:25:42:457
2.360683,-3.711012,-13.76666,0.0,49.848156,24.035658,386.0,NaN,2.16,9.0,93.4,11 / 14,136041,2020-03-20 16:25:42:958
2.312799,-4.414908,-2.097321,0.0,49.848278,24.03529,368.7,NaN,,32.1,,11 / 14,136540,2020-03-20 16:25:43:457
3.011906,-11.219229,-9.356541,0.0,49.848278,24.03529,368.7,NaN,,32.1,,11 / 14,137040,2020-03-20 16:25:43:957
0.177171,-3.926491,-0.071826,0.0,49.848278,24.03529,368.7,NaN,,32.1,,11 / 14,137541,2020-03-20 16:25:44:458
6.464345,-10.778696,-0.02873,0.0,49.848278,24.03529,368.7,NaN,,32.1,,11 / 14,138041,2020-03-20 16:25:44:958
8.259996,-5.544971,-3.77805,0.0,49.848278,24.03529,368.7,NaN,,32.1,,11 / 14,138541,2020-03-20 16:25:45:458
19.182344,-34.1892,-27.935543,0.0,49.848278,24.03529,368.7,NaN,,32.1,,11 / 14,139041,2020-03-20 16:25:45:958
4.807557,-9.514558,-8.00621,0.0,49.848278,24.03529,368.7,NaN,,32.1,,11 / 14,139540,2020-03-20 16:25:46:457
17.03235,-19.541473,-12.938266,0.0,49.848278,24.03529,368.7,NaN,,32.1,,11 / 14,140040,2020-03-20 16:25:46:957
8.863335,-12.919112,-8.767567,0.0,49.848278,24.03529,368.7,NaN,,32.1,,11 / 14,140540,2020-03-20 16:25:47:457
6.722919,-11.204864,-5.602432,0.0,49.848278,24.03529,368.7,NaN,,32.1,,11 / 14,141041,2020-03-20 16:25:47:958
5.516241,-8.264784,-2.561796,0.0,49.848278,24.03529,368.7,NaN,,32.1,,11 / 14,141541,2020-03-20 16:25:48:458
1.833959,-6.550535,0.043096,0.0,49.848278,24.03529,368.7,NaN,,32.1,,11 / 14,142040,2020-03-20 16:25:48:957
7.565677,-12.717999,-2.461239,0.0,49.848278,24.03529,368.7,NaN,,32.1,,11 / 14,142540,2020-03-20 16:25:49:457
15.179238,-2.595315,-8.959103,8.0,49.848278,24.03529,368.7,NaN,,32.1,,11 / 14,143041,2020-03-20 16:25:49:958
2.035071,2.456451,5.420473,8.0,49.848278,24.03529,368.7,NaN,,32.1,,11 / 14,143541,2020-03-20 16:25:50:458