ACCELEROMETER X (m/s²),ACCELEROMETER Y (m/s²),ACCELEROMETER Z (m/s²),PROXIMITY (m),LOCATION Latitude : ,LOCATION Longitude : ,LOCATION Altitude ( m),LOCATION Altitude-google ( m),LOCATION Speed ( Kmh),LOCATION Accuracy ( m),LOCATION ORIENTATION (°),Satellites in range,Time since start in ms ,YYYY-MO-DD HH-MI-SS_SSS
6.062119,0.675165,3.117251,,49.84858,24.034962,362.0,NaN,1.692,11.0,0.0,19 / 19,34,2020-03-21 17:12:16:806
7.666234,-3.083732,4.343082,,49.84858,24.034962,362.0,NaN,1.692,11.0,0.0,19 / 19,535,2020-03-21 17:12:17:307
9.203311,-5.415684,4.721366,0.0,49.84858,24.034962,362.0,NaN,1.692,11.0,0.0,19 / 19,1035,2020-03-21 17:12:17:807
9.495404,-13.757083,0.167594,0.0,49.84858,24.034962,362.0,NaN,1.692,11.0,0.0,19 / 19,1535,2020-03-21 17:12:18:307
10.931925,-10.352529,-2.892196,0.0,49.84858,24.034962,362.0,NaN,1.692,11.0,0.0,19 / 19,2035,2020-03-21 17:12:18:807
-0.253785,-10.764331,-1.546654,0.0,49.84858,24.034962,362.0,NaN,1.692,11.0,0.0,19 / 19,2534,2020-03-21 17:12:19:306
1.273715,-9.088389,0.02873,0.0,49.84858,24.034962,362.0,NaN,1.692,11.0,0.0,19 / 19,3035,2020-03-21 17:12:19:807
3.256114,-16.089035,1.04866,0.0,49.84858,24.034962,362.0,NaN,1.692,11.0,0.0,19 / 19,3535,2020-03-21 17:12:20:307
-0.076614,-6.617573,-5.631162,0.0,49.84858,24.034962,362.0,NaN,1.692,11.0,0.0,19 / 19,4035,2020-03-21 17:12:20:807
3.514688,-13.28782,-1.757344,0.0,49.84858,24.034962,362.0,NaN,1.692,11.0,0.0,19 / 19,4535,2020-03-21 17:12:21:307
2.087744,-2.858677,-1.824382,0.0,49.84858,24.034962,362.0,NaN,1.692,11.0,0.0,19 / 19,5035,2020-03-21 17:12:21:807
2.327164,-7.465121,0.35913,0.0,49.84858,24.034962,362.0,NaN,1.692,11.0,0.0,19 / 19,5535,2020-03-21 17:12:22:307
3.126828,-7.489063,1.307234,0.0,49.84858,24.034962,362.0,NaN,1.692,11.0,0.0,19 / 19,6035,2020-03-21 17:12:22:807
3.495535,-9.131485,0.196325,0.0,49.84858,24.034962,362.0,NaN,1.692,11.0,0.0,19 / 19,6535,2020-03-21 17:12:23:307
2.810793,-11.468226,1.240197,0.0,49.84858,24.034962,362.0,NaN,1.692,11.0,0.0,19 / 19,7035,2020-03-21 17:12:23:807
0.248997,-2.652775,0.42138,0.0,49.84858,24.034962,362.0,NaN,1.692,11.0,0.0,19 / 19,7535,2020-03-21 17:12:24:307
3.342306,-10.31901,-0.536301,0.0,49.84858,24.034962,362.0,NaN,1.692,11.0,0.0,19 / 19,8035,2020-03-21 17:12:24:807
3.193865,-6.607996,-2.791639,0.0,49.84858,24.034962,362.0,NaN,1.692,11.0,0.0,19 / 19,8534,2020-03-21 17:12:25:306
3.428497,-8.135497,-1.101333,0.0,49.84858,24.034962,362.0,NaN,1.692,11.0,0.0,19 / 19,9034,2020-03-21 17:12:25:806
4.941633,-12.531252,0.881066,0.0,49.84858,24.034962,362.0,NaN,1.692,11.0,0.0,19 / 19,9535,2020-03-21 17:12:26:307
2.494758,-7.685387,-0.933739,0.0,49.84858,24.034962,362.0,NaN,1.692,11.0,0.0,19 / 19,10035,2020-03-21 17:12:26:807
3.241749,-11.133038,0.54109,0.0,49.84858,24.034962,362.0,NaN,1.692,11.0,0.0,19 / 19,10535,2020-03-21 17:12:27:307
1.742979,-4.491522,-3.581726,0.0,49.84858,24.034962,362.0,NaN,1.692,11.0,0.0,19 / 19,11035,2020-03-21 17:12:27:807
1.728614,-7.757213,-1.422156,0.0,49.84858,24.034962,362.0,NaN,1.692,11.0,0.0,19 / 19,11535,2020-03-21 17:12:28:307
4.692636,-10.496181,-5.300762,0.0,49.84858,24.034962,362.0,NaN,1.692,11.0,0.0,19 / 19,12035,2020-03-21 17:12:28:807
1.695095,-8.283937,-0.713472,0.0,49.84858,24.034962,362.0,NaN,1.692,11.0,0.0,19 / 19,12534,2020-03-21 17:12:29:306
2.149993,-11.7268,-0.526724,0.0,49.84858,24.034962,362.0,NaN,1.692,11.0,0.0,19 / 19,13035,2020-03-21 17:12:29:807
4.563349,-10.912771,-3.610456,0.0,49.84858,24.034962,362.0,NaN,1.692,11.0,0.0,19 / 19,13535,2020-03-21 17:12:30:307
4.496311,-10.702082,-0.651223,0.0,49.84858,24.034962,362.0,NaN,1.692,11.0,0.0,19 / 19,14035,2020-03-21 17:12:30:807
0.378284,-3.581726,-0.435745,0.0,49.84858,24.034962,362.0,NaN,1.692,11.0,0.0,19 / 19,14535,2020-03-21 17:12:31:307
3.265691,-7.881712,-1.010353,0.0,49.84858,24.034962,362.0,NaN,1.692,11.0,0.0,19 / 19,15034,2020-03-21 17:12:31:806
2.197877,-14.489709,2.480393,0.0,49.84858,24.034962,362.0,NaN,1.692,11.0,0.0,19 / 19,15534,2020-03-21 17:12:32:306
13.857639,-23.228544,3.347094,0.0,49.84858,24.034962,362.0,NaN,1.692,11.0,0.0,19 / 19,16035,2020-03-21 17:12:32:807
3.979163,-15.528792,0.320823,0.0,49.84858,24.034962,362.0,NaN,1.692,11.0,0.0,19 / 19,16535,2020-03-21 17:12:33:307
1.235408,-4.774038,-2.092532,0.0,49.84858,24.034962,362.0,NaN,1.692,11.0,0.0,19 / 19,17035,2020-03-21 17:12:33:807
2.102109,-7.852981,0.110133,0.0,49.84858,24.034962,362.0,NaN,1.692,11.0,0.0,19 / 19,17535,2020-03-21 17:12:34:307
0.474052,-11.473015,-4.515464,0.0,49.84858,24.034962,362.0,NaN,1.692,11.0,0.0,19 / 19,18035,2020-03-21 17:12:34:807
-0.23942,-8.27436,1.44131,0.0,49.84858,24.034962,362.0,NaN,1.692,11.0,0.0,19 / 19,18535,2020-03-21 17:12:35:307
1.302446,-16.472107,2.011129,0.0,49.84858,24.034962,362.0,NaN,1.692,11.0,0.0,19 / 19,19034,2020-03-21 17:12:35:806
1.412579,-5.602432,-4.46758,0.0,49.84858,24.034962,362.0,NaN,1.692,11.0,0.0,19 / 19,19535,2020-03-21 17:12:36:307
0.593762,-8.446744,-0.081403,0.0,49.84858,24.034962,362.0,NaN,1.692,11.0,0.0,19 / 19,20034,2020-03-21 17:12:36:806
4.19943,-4.860229,-3.600879,0.0,49.84858,24.034962,362.0,NaN,1.692,11.0,0.0,19 / 19,20535,2020-03-21 17:12:37:307
3.41892,-10.907983,-0.818817,0.0,49.84858,24.034962,362.0,NaN,1.692,11.0,0.0,19 / 19,21035,2020-03-21 17:12:37:807
-0.052672,-4.343082,-1.599327,0.0,49.84858,24.034962,362.0,NaN,1.692,11.0,0.0,19 / 19,21535,2020-03-21 17:12:38:307
1.968034,-8.403648,-0.986411,0.0,49.84858,24.034962,362.0,NaN,1.692,11.0,0.0,19 / 19,22035,2020-03-21 17:12:38:807
2.75812,-13.297397,1.254562,0.0,49.84858,24.034962,362.0,NaN,1.692,11.0,0.0,19 / 19,22535,2020-03-21 17:12:39:307
0.995988,-8.226476,0.234632,0.0,49.84858,24.034962,362.0,NaN,1.692,11.0,0.0,19 / 19,23035,2020-03-21 17:12:39:807
4.534618,-11.022904,0.268151,0.0,49.84858,24.034962,362.0,NaN,1.692,11.0,0.0,19 / 19,23535,2020-03-21 17:12:40:307
4.501099,-3.878607,-3.107674,0.0,49.84858,24.034962,362.0,NaN,1.692,11.0,0.0,19 / 19,24035,2020-03-21 17:12:40:807
0.497994,-8.63828,-0.306458,0.0,49.84858,24.034962,362.0,NaN,1.692,11.0,0.0,19 / 19,24535,2020-03-21 17:12:41:307
1.072602,-1.900996,-1.010353,0.0,49.84858,24.034962,362.0,NaN,1.692,11.0,0.0,19 / 19,25035,2020-03-21 17:12:41:807
3.289633,-9.045294,-1.316811,0.0,49.84858,24.034962,362.0,NaN,1.692,11.0,0.0,19 / 19,25534,2020-03-21 17:12:42:306
-0.952892,-12.593501,0.80924,0.0,49.84858,24.034962,362.0,NaN,1.692,11.0,0.0,19 / 19,26035,2020-03-21 17:12:42:807
6.277597,-12.828133,-12.837709,0.0,49.84858,24.034962,362.0,NaN,1.692,11.0,0.0,19 / 19,26535,2020-03-21 17:12:43:307
5.248091,-11.123461,-1.292869,0.0,49.84858,24.034962,362.0,NaN,1.692,11.0,0.0,19 / 19,27035,2020-03-21 17:12:43:807
1.651999,-3.873818,-1.374272,0.0,49.84858,24.034962,362.0,NaN,1.692,11.0,0.0,19 / 19,27535,2020-03-21 17:12:44:307
2.365471,-7.517793,-0.287304,0.0,49.84858,24.034962,362.0,NaN,1.692,11.0,0.0,19 / 19,28035,2020-03-21 17:12:44:807
2.207454,-8.240842,-1.254562,0.0,49.84858,24.034962,362.0,NaN,1.692,11.0,0.0,19 / 19,28534,2020-03-21 17:12:45:306
1.628057,-6.368576,-1.474828,0.0,49.84858,24.034962,362.0,NaN,1.692,11.0,0.0,19 / 19,29034,2020-03-21 17:12:45:806
1.972822,-7.584831,-3.198653,0.0,49.84858,24.034962,362.0,NaN,1.692,11.0,0.0,19 / 19,29535,2020-03-21 17:12:46:307
3.514688,-14.408306,-1.752556,0.0,49.84858,24.034962,362.0,NaN,1.692,11.0,0.0,19 / 19,30034,2020-03-21 17:12:46:806
-0.612916,-14.915876,-2.743755,0.0,49.84858,24.034962,362.0,NaN,1.692,11.0,0.0,19 / 19,30534,2020-03-21 17:12:47:306
6.038177,-3.284845,-3.964798,0.0,49.84858,24.034962,362.0,NaN,1.692,11.0,0.0,19 / 19,31035,2020-03-21 17:12:47:807
1.877054,-8.561666,0.038307,0.0,49.84858,24.034962,362.0,NaN,1.692,11.0,0.0,19 / 19,31535,2020-03-21 17:12:48:307
3.1795,-11.046846,-0.612916,0.0,49.84858,24.034962,362.0,NaN,1.692,11.0,0.0,19 / 19,32034,2020-03-21 17:12:48:806
-5.904101,-7.16824,-3.347094,0.0,49.84858,24.034962,362.0,NaN,1.692,11.0,0.0,19 / 19,32534,2020-03-21 17:12:49:306
1.254562,-13.110648,0.378284,0.0,49.84858,24.034962,362.0,NaN,1.692,11.0,0.0,19 / 19,33034,2020-03-21 17:12:49:806
1.407791,-10.175357,-3.050213,0.0,49.84858,24.034962,362.0,NaN,1.692,11.0,0.0,19 / 19,33535,2020-03-21 17:12:50:307
2.825158,-13.086706,0.837971,0.0,49.84858,24.034962,362.0,NaN,1.692,11.0,0.0,19 / 19,34035,2020-03-21 17:12:50:807
1.594538,-4.01747,-4.185065,0.0,49.84858,24.034962,362.0,NaN,1.692,11.0,0.0,19 / 19,34535,2020-03-21 17:12:51:307
3.265691,-5.650316,-0.320823,0.0,49.84858,24.034962,362.0,NaN,1.692,11.0,0.0,19 / 19,35035,2020-03-21 17:12:51:807
0.220267,-10.58716,-4.194641,0.0,49.84858,24.034962,362.0,NaN,1.692,11.0,0.0,19 / 19,35534,2020-03-21 17:12:52:306
-1.192312,-8.734048,-4.697424,0.0,49.84858,24.034962,362.0,NaN,1.692,11.0,0.0,19 / 19,36034,2020-03-21 17:12:52:806
1.695095,-9.878476,-0.938527,0.0,49.84858,24.034962,362.0,NaN,1.692,11.0,0.0,19 / 19,36534,2020-03-21 17:12:53:306
3.021483,-2.87783,-3.44765,0.0,49.84858,24.034962,362.0,NaN,1.692,11.0,0.0,19 / 19,37034,2020-03-21 17:12:53:806
1.900996,-8.566454,0.019154,0.0,49.84858,24.034962,362.0,NaN,1.692,11.0,0.0,19 / 19,37534,2020-03-21 17:12:54:306
-0.258574,-12.061988,-3.222595,0.0,49.84858,24.034962,362.0,NaN,1.692,11.0,0.0,19 / 19,38035,2020-03-21 17:12:54:807
1.623269,-8.604761,4.941633,0.0,49.84858,24.034962,362.0,NaN,1.692,11.0,0.0,19 / 19,38534,2020-03-21 17:12:55:306
2.96881,-10.539276,0.387861,0.0,49.84858,24.034962,362.0,NaN,1.692,11.0,0.0,19 / 19,39035,2020-03-21 17:12:55:807
4.132392,-3.53863,-3.078943,0.0,49.84858,24.034962,362.0,NaN,1.692,11.0,0.0,19 / 19,39535,2020-03-21 17:12:56:307
0.876278,-7.173028,-0.909797,0.0,49.84858,24.034962,362.0,NaN,1.692,11.0,0.0,19 / 19,40034,2020-03-21 17:12:56:806
0.617704,-11.36767,-1.015141,0.0,49.84858,24.034962,362.0,NaN,1.692,11.0,0.0,19 / 19,40534,2020-03-21 17:12:57:306
2.762909,-10.141838,-2.035071,0.0,49.84858,24.034962,362.0,NaN,1.692,11.0,0.0,19 / 19,41035,2020-03-21 17:12:57:807
0.134075,-12.899959,-2.236184,0.0,49.84858,24.034962,362.0,NaN,1.692,11.0,0.0,19 / 19,41535,2020-03-21 17:12:58:307
5.449203,-14.590265,-11.626244,0.0,49.84858,24.034962,362.0,NaN,1.692,11.0,0.0,19 / 19,42035,2020-03-21 17:12:58:807
4.352659,-11.066,0.799663,0.0,49.84858,24.034962,362.0,NaN,1.692,11.0,0.0,19 / 19,42535,2020-03-21 17:12:59:307
2.691083,-2.571372,-1.675941,0.0,49.84858,24.034962,362.0,NaN,1.692,11.0,0.0,19 / 19,43035,2020-03-21 17:12:59:807
2.705448,-8.863335,-0.861913,0.0,49.84858,24.034962,362.0,NaN,1.692,11.0,0.0,19 / 19,43535,2020-03-21 17:13:00:307
3.591303,-12.684481,-2.600103,0.0,49.84858,24.034962,362.0,NaN,1.692,11.0,0.0,19 / 19,44035,2020-03-21 17:13:00:807
2.715025,-14.389153,-8.872911,0.0,49.84858,24.034962,362.0,NaN,1.692,11.0,0.0,19 / 19,44535,2020-03-21 17:13:01:307
2.834735,-11.793838,-0.737414,0.0,49.84858,24.034962,362.0,NaN,1.692,11.0,0.0,19 / 19,45034,2020-03-21 17:13:01:806
-1.431733,-12.684481,-19.278112,0.0,49.84858,24.034962,362.0,NaN,1.692,11.0,0.0,19 / 19,45534,2020-03-21 17:13:02:306
3.241749,-11.544841,-0.287304,0.0,49.84858,24.034962,362.0,NaN,1.692,11.0,0.0,19 / 19,46034,2020-03-21 17:13:02:806
2.193089,-2.403778,-1.604115,0.0,49.84858,24.034962,362.0,NaN,1.692,11.0,0.0,19 / 19,46534,2020-03-21 17:13:03:306
2.427721,-7.939172,-0.785298,0.0,49.84858,24.034962,362.0,NaN,1.692,11.0,0.0,19 / 19,47035,2020-03-21 17:13:03:807
-0.47884,-12.210428,1.201889,0.0,49.84858,24.034962,362.0,NaN,1.692,11.0,0.0,19 / 19,47535,2020-03-21 17:13:04:307
9.351752,-19.321207,-10.572795,0.0,49.84858,24.034962,362.0,NaN,1.692,11.0,0.0,19 / 19,48035,2020-03-21 17:13:04:807
3.337517,-10.151415,-2.475604,0.0,49.84858,24.034962,362.0,NaN,1.692,11.0,0.0,19 / 19,48535,2020-03-21 17:13:05:307
5.118803,-5.300762,-7.5561,0.0,49.84858,24.034962,362.0,NaN,1.692,11.0,0.0,19 / 19,49034,2020-03-21 17:13:05:806
1.158794,-8.595184,0.555455,0.0,49.84858,24.034962,362.0,NaN,1.692,11.0,0.0,19 / 19,49534,2020-03-21 17:13:06:306
2.882619,-6.62715,-2.260126,0.0,49.84858,24.034962,362.0,NaN,1.692,11.0,0.0,19 / 19,50034,2020-03-21 17:13:06:806
2.03986,-8.858546,-0.909797,0.0,49.84858,24.034962,362.0,NaN,1.692,11.0,0.0,19 / 19,50534,2020-03-21 17:13:07:306
-2.446874,-13.661315,-2.384625,0.0,49.84858,24.034962,362.0,NaN,1.692,11.0,0.0,19 / 19,51035,2020-03-21 17:13:07:807
4.941633,-4.611232,-3.462016,0.0,49.84858,24.034962,362.0,NaN,1.692,11.0,0.0,19 / 19,51535,2020-03-21 17:13:08:307
1.968034,-8.968679,0.009577,0.0,49.84858,24.034962,362.0,NaN,1.692,11.0,0.0,19 / 19,52035,2020-03-21 17:13:08:807
2.60968,-9.457097,-3.332729,0.0,49.84858,24.034962,362.0,NaN,1.692,11.0,0.0,19 / 19,52534,2020-03-21 17:13:09:306
1.728614,-9.255983,-1.201889,0.0,49.84858,24.034962,362.0,NaN,1.692,11.0,0.0,19 / 19,53034,2020-03-21 17:13:09:806
2.432509,-12.401965,-2.140416,0.0,49.84858,24.034962,362.0,NaN,1.692,11.0,0.0,19 / 19,53534,2020-03-21 17:13:10:306
7.192182,-6.071695,-7.058106,0.0,49.84858,24.034962,362.0,NaN,1.692,11.0,0.0,19 / 19,54035,2020-03-21 17:13:10:807
1.096544,-9.782708,-0.694318,0.0,49.84858,24.034962,362.0,NaN,1.692,11.0,0.0,19 / 19,54535,2020-03-21 17:13:11:307
2.164359,-6.41646,-1.240196,0.0,49.84858,24.034962,362.0,NaN,1.692,11.0,0.0,19 / 19,55035,2020-03-21 17:13:11:807
3.371036,-7.513005,-1.489193,0.0,49.84858,24.034962,362.0,NaN,1.692,11.0,0.0,19 / 19,55534,2020-03-21 17:13:12:306
-1.561019,-16.01721,-0.397437,0.0,49.84858,24.034962,362.0,NaN,1.692,11.0,0.0,19 / 19,56034,2020-03-21 17:13:12:806
3.643975,-3.859453,-4.491522,0.0,49.84858,24.034962,362.0,NaN,1.692,11.0,0.0,19 / 19,56535,2020-03-21 17:13:13:307
2.844312,-9.955091,0.067038,0.0,49.84858,24.034962,362.0,NaN,1.692,11.0,0.0,19 / 19,57035,2020-03-21 17:13:13:807
2.384625,-7.493851,-2.494758,0.0,49.84858,24.034962,362.0,NaN,1.692,11.0,0.0,19 / 19,57534,2020-03-21 17:13:14:306
3.811569,-6.675034,0.742203,0.0,49.84858,24.034962,362.0,NaN,1.692,11.0,0.0,19 / 19,58034,2020-03-21 17:13:14:806
2.533065,-15.251065,-0.804452,0.0,49.84858,24.034962,362.0,NaN,1.692,11.0,0.0,19 / 19,58534,2020-03-21 17:13:15:306
2.695871,-3.361459,-6.153098,0.0,49.84858,24.034962,362.0,NaN,1.692,11.0,0.0,19 / 19,59034,2020-03-21 17:13:15:806
2.877831,-8.226476,-0.828394,0.0,49.84858,24.034962,362.0,NaN,1.692,11.0,0.0,19 / 19,59534,2020-03-21 17:13:16:306
3.098097,-11.774684,-0.914585,0.0,49.84858,24.034962,362.0,NaN,1.692,11.0,0.0,19 / 19,60035,2020-03-21 17:13:16:807
1.929727,-6.172252,-10.692505,0.0,49.84858,24.034962,362.0,NaN,1.692,11.0,0.0,19 / 19,60535,2020-03-21 17:13:17:307
1.977611,-13.579912,1.312023,0.0,49.84858,24.034962,362.0,NaN,1.692,11.0,0.0,19 / 19,61035,2020-03-21 17:13:17:807
2.796428,-4.462792,-3.064578,0.0,49.84858,24.034962,362.0,NaN,1.692,11.0,0.0,19 / 19,61535,2020-03-21 17:13:18:307
2.590526,-7.120356,-2.001553,0.0,49.84858,24.034962,362.0,NaN,1.692,11.0,0.0,19 / 19,62034,2020-03-21 17:13:18:806
4.462792,-11.051635,-0.23942,0.0,49.84858,24.034962,362.0,NaN,1.692,11.0,0.0,19 / 19,62534,2020-03-21 17:13:19:306
8.346188,-20.465635,-5.267244,0.0,49.84858,24.034962,362.0,NaN,1.692,11.0,0.0,19 / 19,63035,2020-03-21 17:13:19:807
4.036624,-10.7356,-1.896208,0.0,49.84858,24.034962,362.0,NaN,1.692,11.0,0.0,19 / 19,63535,2020-03-21 17:13:20:307
3.102886,-5.81791,-1.92015,0.0,49.84858,24.034962,362.0,NaN,1.692,11.0,0.0,19 / 19,64035,2020-03-21 17:13:20:807
3.002329,-9.174581,-1.958457,0.0,49.84858,24.034962,362.0,NaN,1.692,11.0,0.0,19 / 19,64535,2020-03-21 17:13:21:307
-0.205901,-10.371682,-0.536301,0.0,49.84858,24.034962,362.0,NaN,1.692,11.0,0.0,19 / 19,65035,2020-03-21 17:13:21:807
7.383718,-6.967127,-6.17704,0.0,49.84858,24.034962,362.0,NaN,1.692,11.0,0.0,19 / 19,65534,2020-03-21 17:13:22:306
1.268927,-9.730036,0.799663,0.0,49.84858,24.034962,362.0,NaN,1.692,11.0,0.0,19 / 19,66034,2020-03-21 17:13:22:806
3.734955,-9.931149,-3.782838,0.0,49.84858,24.034962,362.0,NaN,1.692,11.0,0.0,19 / 19,66534,2020-03-21 17:13:23:306
7.431602,-14.561535,-2.777274,0.0,49.84858,24.034962,362.0,NaN,1.692,11.0,0.0,19 / 19,67035,2020-03-21 17:13:23:807
2.274492,-13.125013,0.363919,0.0,49.84858,24.034962,362.0,NaN,1.692,11.0,0.0,19 / 19,67534,2020-03-21 17:13:24:306
3.701436,-3.399766,-1.848324,0.0,49.84858,24.034962,362.0,NaN,1.692,11.0,0.0,19 / 19,68034,2020-03-21 17:13:24:806
2.442086,-7.177817,-1.13964,0.0,49.84858,24.034962,362.0,NaN,1.692,11.0,0.0,19 / 19,68535,2020-03-21 17:13:25:307
2.202666,-6.114791,-3.155558,0.0,49.84858,24.034962,362.0,NaN,1.692,11.0,0.0,19 / 19,69035,2020-03-21 17:13:25:807
0.56982,-7.206547,-0.493206,0.0,49.84858,24.034962,362.0,NaN,1.692,11.0,0.0,19 / 19,69534,2020-03-21 17:13:26:306
-0.11971,-15.121778,-1.508347,0.0,49.84858,24.034962,362.0,NaN,1.692,11.0,0.0,19 / 19,70035,2020-03-21 17:13:26:807
3.155558,-4.893748,-3.423708,0.0,49.84858,24.034962,362.0,NaN,1.692,11.0,0.0,19 / 19,70535,2020-03-21 17:13:27:307
1.04866,-8.317456,0.56982,0.0,49.84858,24.034962,362.0,NaN,1.692,11.0,0.0,19 / 19,71034,2020-03-21 17:13:27:806
-1.517924,-10.223241,-0.933739,0.0,49.84858,24.034962,362.0,NaN,1.692,11.0,0.0,19 / 19,71535,2020-03-21 17:13:28:307
-0.229843,-14.939818,0.871489,0.0,49.84858,24.034962,362.0,NaN,1.692,11.0,0.0,19 / 19,72035,2020-03-21 17:13:28:807
5.19063,-9.318233,0.186748,0.0,49.84858,24.034962,362.0,NaN,1.692,11.0,0.0,19 / 19,72535,2020-03-21 17:13:29:307
2.030283,-2.657564,-4.697424,0.0,49.84858,24.034962,362.0,NaN,1.692,11.0,0.0,19 / 19,73034,2020-03-21 17:13:29:806
3.021483,-7.359776,-1.312023,0.0,49.84858,24.034962,362.0,NaN,1.692,11.0,0.0,19 / 19,73535,2020-03-21 17:13:30:307
3.026271,-8.777143,-3.62961,0.0,49.84858,24.034962,362.0,NaN,1.692,11.0,0.0,19 / 19,74035,2020-03-21 17:13:30:807
5.276821,-13.488933,-2.94008,0.0,49.84858,24.034962,362.0,NaN,1.692,11.0,0.0,19 / 19,74535,2020-03-21 17:13:31:307
1.513135,-12.804191,0.59855,0.0,49.84858,24.034962,362.0,NaN,1.692,11.0,0.0,19 / 19,75034,2020-03-21 17:13:31:806
0.3304,-6.459556,-2.466028,0.0,49.84858,24.034962,362.0,NaN,1.692,11.0,0.0,19 / 19,75535,2020-03-21 17:13:32:307
1.623269,-10.022128,-1.704672,0.0,49.84858,24.034962,362.0,NaN,1.692,11.0,0.0,19 / 19,76034,2020-03-21 17:13:32:806
0.306458,-13.115437,-1.771709,0.0,49.84858,24.034962,362.0,NaN,1.692,11.0,0.0,19 / 19,76534,2020-03-21 17:13:33:306
5.157111,-11.865664,0.459687,0.0,49.84858,24.034962,362.0,NaN,1.692,11.0,0.0,19 / 19,77034,2020-03-21 17:13:33:806
2.06859,-16.304514,0.301669,0.0,49.84858,24.034962,362.0,NaN,1.692,11.0,0.0,19 / 19,77535,2020-03-21 17:13:34:307
1.877054,-3.318364,-2.734178,0.0,49.84858,24.034962,362.0,NaN,1.692,11.0,0.0,19 / 19,78035,2020-03-21 17:13:34:807
1.714248,-10.146626,-1.13964,0.0,49.84858,24.034962,362.0,NaN,1.692,11.0,0.0,19 / 19,78535,2020-03-21 17:13:35:307
2.111686,-10.79785,-1.163582,0.0,49.84858,24.034962,362.0,NaN,1.692,11.0,0.0,19 / 19,79035,2020-03-21 17:13:35:807
5.492299,-3.830723,-4.19943,0.0,49.84858,24.034962,362.0,NaN,1.692,11.0,0.0,19 / 19,79535,2020-03-21 17:13:36:307
2.877831,-9.68694,-1.532289,0.0,49.84858,24.034962,362.0,NaN,1.692,11.0,0.0,19 / 19,80034,2020-03-21 17:13:36:806
2.063802,-13.441049,-0.80924,0.0,49.84858,24.034962,362.0,NaN,1.692,11.0,0.0,0 / 0,80534,2020-03-21 17:13:37:306
3.524265,-8.298302,-0.588974,0.0,49.84858,24.034962,362.0,NaN,1.692,11.0,0.0,0 / 0,81034,2020-03-21 17:13:37:806
0.354342,-14.116213,-0.038307,0.0,49.84858,24.034962,362.0,NaN,1.692,11.0,0.0,0 / 3,81535,2020-03-21 17:13:38:307
5.080496,-4.185065,-7.402871,0.0,49.84858,24.034962,362.0,NaN,1.692,11.0,0.0,0 / 3,82038,2020-03-21 17:13:38:810
1.647211,-5.042188,0.181959,0.0,49.84858,24.034962,362.0,NaN,1.692,11.0,0.0,0 / 5,82534,2020-03-21 17:13:39:306
4.874595,-11.654974,1.61848,0.0,49.84858,24.034962,362.0,NaN,1.692,11.0,0.0,0 / 5,83035,2020-03-21 17:13:39:807
-0.186748,-5.870582,-3.078943,0.0,49.84858,24.034962,362.0,NaN,1.692,11.0,0.0,0 / 15,83535,2020-03-21 17:13:40:307
6.095638,-10.309433,0.387861,0.0,49.84858,24.034962,362.0,NaN,1.692,11.0,0.0,0 / 15,84035,2020-03-21 17:13:40:807
0.54109,-3.715801,-1.316811,0.0,49.848034,24.035566,392.0,NaN,1.8,9.5,0.0,17 / 19,84534,2020-03-21 17:13:41:306
3.816358,-11.784261,-0.92895,0.0,49.848034,24.035566,392.0,NaN,1.8,9.5,0.0,17 / 19,85035,2020-03-21 17:13:41:807
2.710236,-3.227384,-3.222595,0.0,49.848034,24.035566,392.0,NaN,1.8,9.5,0.0,17 / 19,85535,2020-03-21 17:13:42:307
2.408567,-7.302315,-1.450886,0.0,49.848034,24.035566,392.0,NaN,1.8,9.5,0.0,17 / 19,86035,2020-03-21 17:13:42:807
0.325611,-12.976573,-0.430956,0.0,49.848034,24.035566,392.0,NaN,1.8,9.5,0.0,17 / 19,86535,2020-03-21 17:13:43:307
1.608904,-12.138602,-4.070143,0.0,49.848034,24.035566,392.0,NaN,1.8,9.5,0.0,17 / 19,87034,2020-03-21 17:13:43:806
2.60968,-9.89763,-0.105345,0.0,49.848034,24.035566,392.0,NaN,1.8,9.5,0.0,17 / 19,87535,2020-03-21 17:13:44:307
0.244209,-6.229713,-1.082179,0.0,49.848034,24.035566,392.0,NaN,1.8,9.5,0.0,17 / 19,88035,2020-03-21 17:13:44:807
-0.162806,-8.27436,-0.761356,0.0,49.848034,24.035566,392.0,NaN,1.8,9.5,0.0,17 / 19,88535,2020-03-21 17:13:45:307
3.576938,-10.486604,0.392649,0.0,49.848034,24.035566,392.0,NaN,1.8,9.5,0.0,17 / 19,89035,2020-03-21 17:13:45:807
2.236184,-15.231912,1.934515,0.0,49.848034,24.035566,392.0,NaN,1.8,9.5,0.0,17 / 19,89534,2020-03-21 17:13:46:306
2.264915,-9.782708,1.115698,0.0,49.848034,24.035566,392.0,NaN,1.8,9.5,0.0,17 / 19,90034,2020-03-21 17:13:46:806
-0.948104,-3.907337,0.78051,0.0,49.848034,24.035566,392.0,NaN,1.8,9.5,0.0,17 / 19,90534,2020-03-21 17:13:47:306
4.323929,-7.924807,0.038307,0.0,49.848034,24.035566,392.0,NaN,1.8,9.5,0.0,17 / 19,91035,2020-03-21 17:13:47:807
5.64074,-11.602302,-2.059013,0.0,49.848034,24.035566,392.0,NaN,1.8,9.5,0.0,17 / 19,91535,2020-03-21 17:13:48:307
3.792416,-10.103531,-2.030283,0.0,49.848034,24.035566,392.0,NaN,1.8,9.5,0.0,17 / 19,92035,2020-03-21 17:13:48:807
2.106898,-15.796943,0.397437,0.0,49.848034,24.035566,392.0,NaN,1.8,9.5,0.0,17 / 19,92534,2020-03-21 17:13:49:306
4.357447,-12.832921,-1.307234,0.0,49.848034,24.035566,392.0,NaN,1.8,9.5,0.0,17 / 19,93034,2020-03-21 17:13:49:806
4.007894,-13.359646,-0.54109,0.0,49.848034,24.035566,392.0,NaN,1.8,9.5,0.0,17 / 19,93534,2020-03-21 17:13:50:306
2.753332,-2.217031,-6.354211,0.0,49.848034,24.035566,392.0,NaN,1.8,9.5,0.0,17 / 19,94035,2020-03-21 17:13:50:807
3.342306,-11.008539,-1.163582,0.0,49.848034,24.035566,392.0,NaN,1.8,9.5,0.0,17 / 19,94535,2020-03-21 17:13:51:307
2.446874,-5.511452,-2.87783,0.0,49.848034,24.035566,392.0,NaN,1.8,9.5,0.0,17 / 19,95035,2020-03-21 17:13:51:807
1.814805,-9.753978,-0.727837,0.0,49.848034,24.035566,392.0,NaN,1.8,9.5,0.0,17 / 19,95535,2020-03-21 17:13:52:307
2.619257,-12.646173,-1.398214,0.0,49.848034,24.035566,392.0,NaN,1.8,9.5,0.0,17 / 19,96035,2020-03-21 17:13:52:807
2.959233,-4.644751,-3.457227,0.0,49.848034,24.035566,392.0,NaN,1.8,9.5,0.0,17 / 19,96534,2020-03-21 17:13:53:306
1.177947,-9.390059,0.78051,0.0,49.848034,24.035566,392.0,NaN,1.8,9.5,0.0,17 / 19,97034,2020-03-21 17:13:53:806
-1.417367,-5.650316,-0.54109,0.0,49.848034,24.035566,392.0,NaN,1.8,9.5,0.0,17 / 19,97534,2020-03-21 17:13:54:306
1.034295,-7.28795,-1.369483,0.0,49.848034,24.035566,392.0,NaN,1.8,9.5,0.0,17 / 19,98035,2020-03-21 17:13:54:807
2.178724,-13.378799,-2.149993,0.0,49.848034,24.035566,392.0,NaN,1.8,9.5,0.0,17 / 19,98535,2020-03-21 17:13:55:307
2.331953,-15.289372,-11.425131,0.0,49.848034,24.035566,392.0,NaN,1.8,9.5,0.0,17 / 19,99035,2020-03-21 17:13:55:807
3.174712,-10.970232,1.68073,0.0,49.848034,24.035566,392.0,NaN,1.8,9.5,0.0,17 / 19,99535,2020-03-21 17:13:56:307
3.500323,-4.055777,-3.485957,0.0,49.848034,24.035566,392.0,NaN,1.8,9.5,0.0,17 / 19,100035,2020-03-21 17:13:56:807
2.614468,-7.019799,0.6608,0.0,49.848034,24.035566,392.0,NaN,1.8,9.5,0.0,17 / 19,100534,2020-03-21 17:13:57:306
0.952892,-1.814805,-1.388637,0.0,49.848034,24.035566,392.0,NaN,1.8,9.5,0.0,17 / 19,101034,2020-03-21 17:13:57:806
1.857901,-7.125144,-0.80924,0.0,49.848034,24.035566,392.0,NaN,1.8,9.5,0.0,17 / 19,101534,2020-03-21 17:13:58:306
8.250419,-9.366117,-10.55843,0.0,49.848034,24.035566,392.0,NaN,1.8,9.5,0.0,17 / 19,102034,2020-03-21 17:13:58:806
2.327164,-8.27436,-5.33907,0.0,49.848034,24.035566,392.0,NaN,1.8,9.5,0.0,17 / 19,102534,2020-03-21 17:13:59:306
3.849877,-8.015787,0.172383,0.0,49.848034,24.035566,392.0,NaN,1.8,9.5,0.0,17 / 19,103035,2020-03-21 17:13:59:807
-3.313575,-11.27669,-2.202665,0.0,49.848034,24.035566,392.0,NaN,1.8,9.5,0.0,17 / 19,103535,2020-03-21 17:14:00:307
2.892196,-16.529568,-20.863073,0.0,49.848034,24.035566,392.0,NaN,1.8,9.5,0.0,17 / 19,104035,2020-03-21 17:14:00:807
5.070919,-7.608773,3.165135,0.0,49.848034,24.035566,392.0,NaN,1.8,9.5,0.0,17 / 19,104535,2020-03-21 17:14:01:307
-0.924162,-3.552995,0.454898,0.0,49.848034,24.035566,392.0,NaN,1.8,9.5,0.0,17 / 19,105035,2020-03-21 17:14:01:807
2.844312,-6.856993,-0.708684,0.0,49.848034,24.035566,392.0,NaN,1.8,9.5,0.0,17 / 19,105534,2020-03-21 17:14:02:306
0.565032,-11.027693,-1.340753,0.0,49.848034,24.035566,392.0,NaN,1.8,9.5,0.0,17 / 19,106034,2020-03-21 17:14:02:806
2.485181,-14.518439,-4.654328,0.0,49.848034,24.035566,392.0,NaN,1.8,9.5,0.0,17 / 19,106534,2020-03-21 17:14:03:306
2.619257,-12.047623,1.996764,0.0,49.848034,24.035566,392.0,NaN,1.8,9.5,0.0,17 / 19,107035,2020-03-21 17:14:03:807
-0.258574,-2.94008,0.162806,0.0,49.848034,24.035566,392.0,NaN,1.8,9.5,0.0,17 / 19,107535,2020-03-21 17:14:04:307
4.501099,-6.607996,-0.35913,0.0,49.848034,24.035566,392.0,NaN,1.8,9.5,0.0,17 / 19,108035,2020-03-21 17:14:04:807
2.633622,-10.745177,-1.273715,0.0,49.848034,24.035566,392.0,NaN,1.8,9.5,0.0,17 / 19,108535,2020-03-21 17:14:05:307
5.123592,-7.144298,-1.493982,0.0,49.848034,24.035566,392.0,NaN,1.8,9.5,0.0,17 / 19,109034,2020-03-21 17:14:05:806
1.455675,-9.126697,0.153229,0.0,49.848034,24.035566,392.0,NaN,1.8,9.5,0.0,17 / 19,109534,2020-03-21 17:14:06:306
3.136404,-12.066776,-1.546654,0.0,49.848034,24.035566,392.0,NaN,1.8,9.5,0.0,17 / 19,110034,2020-03-21 17:14:06:806
-0.014365,-6.847417,-2.169147,0.0,49.848034,24.035566,392.0,NaN,1.8,9.5,0.0,17 / 19,110535,2020-03-21 17:14:07:307
6.871359,-11.133038,-2.499546,0.0,49.848034,24.035566,392.0,NaN,1.8,9.5,0.0,17 / 19,111035,2020-03-21 17:14:07:807
-1.484405,-2.906561,-0.627281,0.0,49.848034,24.035566,392.0,NaN,1.8,9.5,0.0,17 / 19,111535,2020-03-21 17:14:08:307
1.853112,-7.144298,-1.642422,0.0,49.848034,24.035566,392.0,NaN,1.8,9.5,0.0,17 / 19,112035,2020-03-21 17:14:08:807
6.042965,-11.228806,-1.096544,0.0,49.848034,24.035566,392.0,NaN,1.8,9.5,0.0,17 / 19,112535,2020-03-21 17:14:09:307
0.718261,-8.987833,-1.647211,0.0,49.848034,24.035566,392.0,NaN,1.8,9.5,0.0,17 / 19,113034,2020-03-21 17:14:09:806
3.131616,-13.378799,-2.015918,0.0,49.848034,24.035566,392.0,NaN,1.8,9.5,0.0,17 / 19,113534,2020-03-21 17:14:10:306
0.474052,-6.090849,-1.326388,0.0,49.848034,24.035566,392.0,NaN,1.8,9.5,0.0,17 / 19,114035,2020-03-21 17:14:10:807
4.328717,-12.239159,-0.138864,0.0,49.848034,24.035566,392.0,NaN,1.8,9.5,0.0,17 / 19,114535,2020-03-21 17:14:11:307
-0.325611,-2.312799,-1.642422,0.0,49.848034,24.035566,392.0,NaN,1.8,9.5,0.0,17 / 19,115035,2020-03-21 17:14:11:807
5.813122,-8.791509,-0.469264,0.0,49.848034,24.035566,392.0,NaN,1.8,9.5,0.0,17 / 19,115535,2020-03-21 17:14:12:307
2.944868,-13.670892,-1.479617,0.0,49.848034,24.035566,392.0,NaN,1.8,9.5,0.0,17 / 19,116034,2020-03-21 17:14:12:806
5.664682,-1.886631,-5.252878,0.0,49.848034,24.035566,392.0,NaN,1.8,9.5,0.0,17 / 19,116535,2020-03-21 17:14:13:307
4.745308,-11.085154,-1.570596,0.0,49.848034,24.035566,392.0,NaN,1.8,9.5,0.0,17 / 19,117034,2020-03-21 17:14:13:806
1.177947,-4.711789,-1.900996,0.0,49.848034,24.035566,392.0,NaN,1.8,9.5,0.0,17 / 19,117534,2020-03-21 17:14:14:306
4.242526,-7.096413,-0.469264,0.0,49.848034,24.035566,392.0,NaN,1.8,9.5,0.0,17 / 19,118034,2020-03-21 17:14:14:806
2.030283,-9.591172,-2.944868,0.0,49.848034,24.035566,392.0,NaN,1.8,9.5,0.0,17 / 19,118534,2020-03-21 17:14:15:306
2.882619,-13.345281,-1.73819,0.0,49.848034,24.035566,392.0,NaN,1.8,9.5,0.0,17 / 19,119035,2020-03-21 17:14:15:807
1.594538,-14.135366,0.895431,0.0,49.848034,24.035566,392.0,NaN,1.8,9.5,0.0,17 / 19,119535,2020-03-21 17:14:16:307
5.913678,-4.314351,-3.849876,0.0,49.848034,24.035566,392.0,NaN,1.8,9.5,0.0,17 / 19,120035,2020-03-21 17:14:16:807
1.771709,-8.111555,0.277727,0.0,49.848034,24.035566,392.0,NaN,1.8,9.5,0.0,17 / 19,120535,2020-03-21 17:14:17:307
0.220267,-2.662352,-1.484405,0.0,49.848034,24.035566,392.0,NaN,1.8,9.5,0.0,17 / 19,121035,2020-03-21 17:14:17:807
2.691083,-9.284714,-1.393425,0.0,49.848034,24.035566,392.0,NaN,1.8,9.5,0.0,17 / 19,121535,2020-03-21 17:14:18:307
0.42138,-16.050728,-1.623269,0.0,49.848034,24.035566,392.0,NaN,1.8,9.5,0.0,17 / 19,122034,2020-03-21 17:14:18:806
5.746084,-5.224148,-6.062118,0.0,49.848034,24.035566,392.0,NaN,1.8,9.5,0.0,17 / 19,122534,2020-03-21 17:14:19:306
1.594538,-8.820239,-0.158017,0.0,49.848034,24.035566,392.0,NaN,1.8,9.5,0.0,17 / 19,123035,2020-03-21 17:14:19:807
4.730943,-10.711658,-2.049437,0.0,49.848034,24.035566,392.0,NaN,1.8,9.5,0.0,17 / 19,123535,2020-03-21 17:14:20:307
0.071826,7.292739,0.062249,0.0,49.848034,24.035566,392.0,NaN,1.8,9.5,0.0,17 / 19,124035,2020-03-21 17:14:20:807
4.735731,-9.878476,0.670377,0.0,49.848034,24.035566,392.0,NaN,1.8,9.5,0.0,17 / 19,124535,2020-03-21 17:14:21:307
3.758897,-4.424484,-3.155558,0.0,49.848034,24.035566,392.0,NaN,1.8,9.5,0.0,17 / 19,125035,2020-03-21 17:14:21:807
3.457227,-6.876147,0.229843,0.0,49.848034,24.035566,392.0,NaN,1.8,9.5,0.0,17 / 19,125535,2020-03-21 17:14:22:307
1.982399,-13.28782,-0.081403,0.0,49.848034,24.035566,392.0,NaN,1.8,9.5,0.0,17 / 19,126034,2020-03-21 17:14:22:806
6.023812,-21.078552,-11.243171,0.0,49.848034,24.035566,392.0,NaN,1.8,9.5,0.0,17 / 19,126534,2020-03-21 17:14:23:306
5.540183,-11.09473,-0.253785,0.0,49.848034,24.035566,392.0,NaN,1.8,9.5,0.0,17 / 19,127034,2020-03-21 17:14:23:806
-0.684742,-3.734954,-0.703895,0.0,49.848034,24.035566,392.0,NaN,1.8,9.5,0.0,17 / 19,127535,2020-03-21 17:14:24:307
2.087744,-6.823475,-2.054225,0.0,49.848034,24.035566,392.0,NaN,1.8,9.5,0.0,17 / 19,128035,2020-03-21 17:14:24:807
5.899313,-12.301409,-1.091756,0.0,49.848034,24.035566,392.0,NaN,1.8,9.5,0.0,17 / 19,128535,2020-03-21 17:14:25:307
-0.71826,-8.441956,-0.656011,0.0,49.848034,24.035566,392.0,NaN,1.8,9.5,0.0,17 / 19,129035,2020-03-21 17:14:25:807
-1.900996,-13.359646,-0.871489,0.0,49.848034,24.035566,392.0,NaN,1.8,9.5,0.0,17 / 19,129535,2020-03-21 17:14:26:307
3.696648,-15.749059,-0.632069,0.0,49.848034,24.035566,392.0,NaN,1.8,9.5,0.0,17 / 19,130035,2020-03-21 17:14:26:807
-0.708684,-17.60217,-3.825934,0.0,49.848034,24.035566,392.0,NaN,1.8,9.5,0.0,17 / 19,130534,2020-03-21 17:14:27:306
-2.470816,-5.291186,-12.253524,0.0,49.848034,24.035566,392.0,NaN,1.8,9.5,0.0,17 / 19,131034,2020-03-21 17:14:27:806
3.773262,-10.860099,-0.679953,0.0,49.848034,24.035566,392.0,NaN,1.8,9.5,0.0,17 / 19,131534,2020-03-21 17:14:28:306
0.823605,-9.11712,-0.052672,0.0,49.848034,24.035566,392.0,NaN,1.8,9.5,0.0,17 / 19,132035,2020-03-21 17:14:28:807
7.546524,-9.864111,0.45011,0.0,49.848034,24.035566,392.0,NaN,1.8,9.5,0.0,17 / 19,132535,2020-03-21 17:14:29:307
4.994305,-12.837709,-1.063026,0.0,49.848034,24.035566,392.0,NaN,1.8,9.5,0.0,17 / 19,133034,2020-03-21 17:14:29:806
3.816358,-2.691083,-5.535394,0.0,49.848034,24.035566,392.0,NaN,1.8,9.5,0.0,0 / 0,133534,2020-03-21 17:14:30:306
4.400543,-11.204864,-1.781286,0.0,49.848034,24.035566,392.0,NaN,1.8,9.5,0.0,0 / 0,134035,2020-03-21 17:14:30:807
0.215478,-4.003105,-2.365471,0.0,49.848034,24.035566,392.0,NaN,1.8,9.5,0.0,0 / 3,134535,2020-03-21 17:14:31:307
3.519477,-6.995857,-1.005565,0.0,49.848034,24.035566,392.0,NaN,1.8,9.5,0.0,0 / 3,135035,2020-03-21 17:14:31:807
1.331176,-12.526464,0.751779,0.0,49.848034,24.035566,392.0,NaN,1.8,9.5,0.0,8 / 8,135535,2020-03-21 17:14:32:307
3.634398,-7.024587,-2.94008,0.0,49.848034,24.035566,392.0,NaN,1.8,9.5,0.0,8 / 8,136034,2020-03-21 17:14:32:806
2.231396,-15.409082,0.378284,0.0,49.848034,24.035566,392.0,NaN,1.8,9.5,0.0,17 / 18,136534,2020-03-21 17:14:33:306
5.123592,-3.840299,-7.513005,0.0,49.848034,24.035566,392.0,NaN,1.8,9.5,0.0,17 / 18,137035,2020-03-21 17:14:33:807
0.383072,-8.09719,0.641646,0.0,49.848034,24.035566,392.0,NaN,1.8,9.5,0.0,17 / 18,137534,2020-03-21 17:14:34:306
1.211466,-6.488286,0.636858,0.0,49.848034,24.035566,392.0,NaN,1.8,9.5,0.0,17 / 18,138034,2020-03-21 17:14:34:806
2.446874,-7.125144,-1.221043,0.0,49.848034,24.035566,392.0,NaN,1.8,9.5,0.0,17 / 18,138535,2020-03-21 17:14:35:307
0.440533,-14.599842,0.512359,0.0,49.848034,24.035566,392.0,NaN,1.8,9.5,0.0,17 / 18,139035,2020-03-21 17:14:35:807
4.477157,-14.987702,-9.083601,0.0,49.848034,24.035566,392.0,NaN,1.8,9.5,0.0,17 / 18,139535,2020-03-21 17:14:36:307
7.311892,-8.671799,-3.045424,0.0,49.848034,24.035566,392.0,NaN,1.8,9.5,0.0,17 / 18,140035,2020-03-21 17:14:36:807
2.738967,-4.644751,-1.905785,0.0,49.848034,24.035566,392.0,NaN,1.8,9.5,0.0,17 / 18,140534,2020-03-21 17:14:37:306
1.130063,-9.581595,-1.441309,0.0,49.848034,24.035566,392.0,NaN,1.8,9.5,0.0,17 / 18,141034,2020-03-21 17:14:37:806
2.810793,-12.349293,-3.174711,0.0,49.848034,24.035566,392.0,NaN,1.8,9.5,0.0,17 / 18,141535,2020-03-21 17:14:38:307
17.745823,-21.08813,-4.213795,0.0,49.848034,24.035566,392.0,NaN,1.8,9.5,0.0,17 / 18,142035,2020-03-21 17:14:38:807
0.272939,-13.297397,-3.505111,0.0,49.848034,24.035566,392.0,NaN,1.8,9.5,0.0,17 / 18,142535,2020-03-21 17:14:39:307
3.236961,-9.040505,-11.525687,0.0,49.848034,24.035566,392.0,NaN,1.8,9.5,0.0,17 / 18,143035,2020-03-21 17:14:39:807
4.606444,-12.066776,-2.839523,0.0,49.848034,24.035566,392.0,NaN,1.8,9.5,0.0,17 / 18,143535,2020-03-21 17:14:40:307
3.174712,-4.304775,-1.877054,0.0,49.848034,24.035566,392.0,NaN,1.8,9.5,0.0,17 / 18,144034,2020-03-21 17:14:40:806
4.807557,-9.255983,-0.665588,0.0,49.848034,24.035566,392.0,NaN,1.8,9.5,0.0,17 / 18,144534,2020-03-21 17:14:41:306
2.916138,-15.184027,-0.004788,0.0,49.848034,24.035566,392.0,NaN,1.8,9.5,0.0,17 / 18,145035,2020-03-21 17:14:41:807
-1.833958,-3.481169,0.143652,0.0,49.848034,24.035566,392.0,NaN,1.8,9.5,0.0,17 / 18,145535,2020-03-21 17:14:42:307
3.093309,-15.753847,1.273715,0.0,49.848034,24.035566,392.0,NaN,1.8,9.5,0.0,17 / 18,146035,2020-03-21 17:14:42:807
-4.630386,-3.543418,-3.950433,0.0,49.848034,24.035566,392.0,NaN,1.8,9.5,0.0,17 / 18,146534,2020-03-21 17:14:43:306
4.86023,-12.200851,0.531513,0.0,49.848034,24.035566,392.0,NaN,1.8,9.5,0.0,17 / 18,147034,2020-03-21 17:14:43:806
0.871489,-2.604891,-1.489193,0.0,49.848034,24.035566,392.0,NaN,1.8,9.5,0.0,17 / 18,147535,2020-03-21 17:14:44:307
3.198654,-7.302315,0.23942,0.0,49.848034,24.035566,392.0,NaN,1.8,9.5,0.0,17 / 18,148035,2020-03-21 17:14:44:807
1.623269,-10.960655,-1.781286,0.0,49.848034,24.035566,392.0,NaN,1.8,9.5,0.0,17 / 18,148535,2020-03-21 17:14:45:307
-1.388637,-11.133038,-2.662352,0.0,49.848034,24.035566,392.0,NaN,1.8,9.5,0.0,17 / 18,149035,2020-03-21 17:14:45:807
5.602432,-9.811439,-0.191536,0.0,49.848034,24.035566,392.0,NaN,1.8,9.5,0.0,17 / 18,149534,2020-03-21 17:14:46:306
1.814805,-3.921702,-0.68953,0.0,49.848034,24.035566,392.0,NaN,1.8,9.5,0.0,17 / 18,150035,2020-03-21 17:14:46:807
1.666364,-9.006987,-1.096544,0.0,49.848034,24.035566,392.0,NaN,1.8,9.5,0.0,17 / 18,150535,2020-03-21 17:14:47:307
4.357447,-5.3678,-2.336741,0.0,49.848034,24.035566,392.0,NaN,1.8,9.5,0.0,17 / 18,151035,2020-03-21 17:14:47:807
5.286398,-6.861782,-0.732626,0.0,49.848034,24.035566,392.0,NaN,1.8,9.5,0.0,17 / 18,151534,2020-03-21 17:14:48:306
2.049437,-10.682928,-0.383072,0.0,49.848034,24.035566,392.0,NaN,1.8,9.5,0.0,17 / 18,152034,2020-03-21 17:14:48:806
-0.158017,-6.469133,0.186748,0.0,49.848034,24.035566,392.0,NaN,1.8,9.5,0.0,17 / 18,152534,2020-03-21 17:14:49:306
3.476381,-13.52724,1.728614,0.0,49.848034,24.035566,392.0,NaN,1.8,9.5,0.0,17 / 18,153035,2020-03-21 17:14:49:807
2.011129,-2.303222,-6.210559,0.0,49.848034,24.035566,392.0,NaN,1.8,9.5,0.0,17 / 18,153535,2020-03-21 17:14:50:307
3.284845,-7.206547,-0.177171,0.0,49.848034,24.035566,392.0,NaN,1.8,9.5,0.0,17 / 18,154035,2020-03-21 17:14:50:807
2.269703,-4.659116,-0.588974,0.0,49.848034,24.035566,392.0,NaN,1.8,9.5,0.0,17 / 18,154534,2020-03-21 17:14:51:306
-0.253785,-9.346964,-0.593762,0.0,49.848034,24.035566,392.0,NaN,1.8,9.5,0.0,17 / 18,155034,2020-03-21 17:14:51:806
1.699883,-13.900735,-3.371036,0.0,49.848034,24.035566,392.0,NaN,1.8,9.5,0.0,17 / 18,155534,2020-03-21 17:14:52:306
6.224925,-3.701436,-6.042965,0.0,49.848034,24.035566,392.0,NaN,1.8,9.5,0.0,17 / 18,156034,2020-03-21 17:14:52:806
5.114015,-11.84651,-1.848324,0.0,49.848034,24.035566,392.0,NaN,1.8,9.5,0.0,17 / 18,156535,2020-03-21 17:14:53:307
1.01993,-6.382941,-1.403002,0.0,49.848034,24.035566,392.0,NaN,1.8,9.5,0.0,17 / 18,157035,2020-03-21 17:14:53:807
2.293645,-8.734048,-0.799663,0.0,49.848034,24.035566,392.0,NaN,1.8,9.5,0.0,17 / 18,157535,2020-03-21 17:14:54:307
3.08852,-10.682928,-2.446874,0.0,49.848034,24.035566,392.0,NaN,1.8,9.5,0.0,17 / 18,158035,2020-03-21 17:14:54:807
3.581726,-7.422025,0.603339,0.0,49.848034,24.035566,392.0,NaN,1.8,9.5,0.0,17 / 18,158535,2020-03-21 17:14:55:307
4.903325,-11.616667,-2.030283,0.0,49.848034,24.035566,392.0,NaN,1.8,9.5,0.0,17 / 18,159034,2020-03-21 17:14:55:806
-2.015918,-6.315904,-2.863465,0.0,49.848034,24.035566,392.0,NaN,1.8,9.5,0.0,17 / 18,159534,2020-03-21 17:14:56:306
4.74052,-12.713211,-0.775721,0.0,49.848034,24.035566,392.0,NaN,1.8,9.5,0.0,17 / 18,160034,2020-03-21 17:14:56:806
-1.163582,-2.044648,-1.422156,0.0,49.848034,24.035566,392.0,NaN,1.8,9.5,0.0,17 / 18,160535,2020-03-21 17:14:57:307
3.955221,-9.552865,-1.599327,0.0,49.848034,24.035566,392.0,NaN,1.8,9.5,0.0,17 / 18,161035,2020-03-21 17:14:57:807
4.07972,-14.848839,-0.775721,0.0,49.848034,24.035566,392.0,NaN,1.8,9.5,0.0,17 / 18,161535,2020-03-21 17:14:58:307
5.961562,-3.122039,-7.824251,0.0,49.848034,24.035566,392.0,NaN,1.8,9.5,0.0,17 / 18,162035,2020-03-21 17:14:58:807
6.588843,-10.299856,-0.181959,0.0,49.848034,24.035566,392.0,NaN,1.8,9.5,0.0,17 / 18,162535,2020-03-21 17:14:59:307
-0.665588,-4.865018,-1.216254,0.0,49.848034,24.035566,392.0,NaN,1.8,9.5,0.0,17 / 18,163035,2020-03-21 17:14:59:807
2.221819,-7.398083,0.823605,0.0,49.848034,24.035566,392.0,NaN,1.8,9.5,0.0,17 / 18,163534,2020-03-21 17:15:00:306
1.972822,-5.6982,-0.081403,0.0,49.848034,24.035566,392.0,NaN,1.8,9.5,0.0,17 / 18,164035,2020-03-21 17:15:00:807
0.727837,-6.445191,-1.216254,0.0,49.848034,24.035566,392.0,NaN,1.8,9.5,0.0,17 / 18,164535,2020-03-21 17:15:01:307
3.696648,-12.248735,1.374272,0.0,49.848034,24.035566,392.0,NaN,1.8,9.5,0.0,17 / 18,165034,2020-03-21 17:15:01:806
1.130063,-6.368576,-1.235408,0.0,49.848034,24.035566,392.0,NaN,1.8,9.5,0.0,17 / 18,165535,2020-03-21 17:15:02:307
2.394202,-17.520767,0.78051,0.0,49.848034,24.035566,392.0,NaN,1.8,9.5,0.0,17 / 18,166035,2020-03-21 17:15:02:807
1.187524,-4.639962,-2.8491,0.0,49.848034,24.035566,392.0,NaN,1.8,9.5,0.0,17 / 18,166534,2020-03-21 17:15:03:306
1.072602,-12.325351,0.009577,0.0,49.848034,24.035566,392.0,NaN,1.8,9.5,0.0,17 / 18,167034,2020-03-21 17:15:03:806
1.867477,-3.950433,-1.288081,0.0,49.848034,24.035566,392.0,NaN,1.8,9.5,0.0,17 / 18,167535,2020-03-21 17:15:04:307
4.88896,-7.010222,-0.062249,0.0,49.848034,24.035566,392.0,NaN,1.8,9.5,0.0,17 / 18,168035,2020-03-21 17:15:04:807
4.467581,-9.672575,-1.13964,0.0,49.848034,24.035566,392.0,NaN,1.8,9.5,0.0,17 / 18,168535,2020-03-21 17:15:05:307
3.548207,-9.385271,-1.288081,0.0,49.848034,24.035566,392.0,NaN,1.8,9.5,0.0,17 / 18,169035,2020-03-21 17:15:05:807
3.438074,-16.864758,-0.3304,0.0,49.848034,24.035566,392.0,NaN,1.8,9.5,0.0,17 / 18,169535,2020-03-21 17:15:06:307
3.169923,-2.686294,-4.031835,0.0,49.848034,24.035566,392.0,NaN,1.8,9.5,0.0,17 / 18,170034,2020-03-21 17:15:06:806
0.416591,-16.237476,-3.342306,0.0,49.848034,24.035566,392.0,NaN,1.8,9.5,0.0,17 / 18,170535,2020-03-21 17:15:07:307
12.196063,-21.049822,-11.789049,0.0,49.848034,24.035566,392.0,NaN,1.8,9.5,0.0,17 / 18,171035,2020-03-21 17:15:07:807
6.291962,-11.525687,-0.995988,0.0,49.848034,24.035566,392.0,NaN,1.8,9.5,0.0,17 / 18,171534,2020-03-21 17:15:08:306
5.535394,-2.72939,-8.528147,0.0,49.848034,24.035566,392.0,NaN,1.8,9.5,0.0,17 / 18,172035,2020-03-21 17:15:08:807
1.359907,-7.752425,0.641646,0.0,49.848034,24.035566,392.0,NaN,1.8,9.5,0.0,17 / 18,172535,2020-03-21 17:15:09:307
2.853889,-10.012551,-0.411803,0.0,49.848034,24.035566,392.0,NaN,1.8,9.5,0.0,17 / 18,173035,2020-03-21 17:15:09:807
-6.354211,-5.521029,-4.673482,0.0,49.848034,24.035566,392.0,NaN,1.8,9.5,0.0,17 / 18,173535,2020-03-21 17:15:10:307
4.76925,-12.799402,1.297657,0.0,49.848034,24.035566,392.0,NaN,1.8,9.5,0.0,17 / 18,174034,2020-03-21 17:15:10:806
1.685518,-7.747637,-1.556231,0.0,49.848034,24.035566,392.0,NaN,1.8,9.5,0.0,17 / 18,174534,2020-03-21 17:15:11:306
5.133168,-10.261548,-0.847547,0.0,49.848034,24.035566,392.0,NaN,1.8,9.5,0.0,17 / 18,175035,2020-03-21 17:15:11:807
2.777274,-5.204994,-2.590526,0.0,49.848034,24.035566,392.0,NaN,1.8,9.5,0.0,17 / 18,175535,2020-03-21 17:15:12:307
2.619257,-9.203311,-1.537077,0.0,49.848034,24.035566,392.0,NaN,1.8,9.5,0.0,17 / 18,176035,2020-03-21 17:15:12:807
1.417368,-17.48246,0.234632,0.0,49.848034,24.035566,392.0,NaN,1.8,9.5,0.0,17 / 18,176534,2020-03-21 17:15:13:306
-4.76925,-9.591172,6.277597,8.0,49.848034,24.035566,392.0,NaN,1.8,9.5,0.0,17 / 18,177034,2020-03-21 17:15:13:806
6.56969,3.016694,1.824382,0.0,49.848034,24.035566,392.0,NaN,1.8,9.5,0.0,17 / 18,177534,2020-03-21 17:15:14:306
3.572149,1.891419,7.192182,8.0,49.848034,24.035566,392.0,NaN,1.8,9.5,0.0,17 / 18,178035,2020-03-21 17:15:14:807
3.423709,3.069367,9.504981,8.0,49.848034,24.035566,392.0,NaN,1.8,9.5,0.0,17 / 18,178535,2020-03-21 17:15:15:307
2.753332,2.920926,8.058883,8.0,49.848034,24.035566,392.0,NaN,1.8,9.5,0.0,17 / 18,179035,2020-03-21 17:15:15:807