ACCELEROMETER X (m/s²),ACCELEROMETER Y (m/s²),ACCELEROMETER Z (m/s²),PROXIMITY (m),LOCATION Latitude : ,LOCATION Longitude : ,LOCATION Altitude ( m),LOCATION Altitude-google ( m),LOCATION Speed ( Kmh),LOCATION Accuracy ( m),LOCATION ORIENTATION (°),Satellites in range,Time since start in ms ,YYYY-MO-DD HH-MI-SS_SSS
3.160346,-1.541866,6.315904,8.0,49.847973,24.03651,389.0,NaN,3.708,11.0,120.9,14 / 14,30,2020-03-20 16:34:23:005
8.887277,-5.468356,6.14831,8.0,49.847973,24.03651,389.0,NaN,3.708,11.0,120.9,14 / 14,530,2020-03-20 16:34:23:505
11.18571,-0.694318,2.049437,0.0,49.847973,24.03651,389.0,NaN,3.708,11.0,120.9,14 / 14,1031,2020-03-20 16:34:24:006
13.608643,-11.09473,-12.962208,0.0,49.847973,24.03651,389.0,NaN,3.708,11.0,120.9,14 / 14,1531,2020-03-20 16:34:24:506
7.661446,-4.448426,-3.428497,0.0,49.847973,24.03651,389.0,NaN,3.708,11.0,120.9,14 / 14,2030,2020-03-20 16:34:25:005
2.70066,-6.368576,2.063802,0.0,49.847973,24.03651,389.0,NaN,3.708,11.0,120.9,14 / 14,2531,2020-03-20 16:34:25:506
5.003882,-3.811569,0.617704,0.0,49.847973,24.03651,389.0,NaN,3.708,11.0,120.9,14 / 14,3030,2020-03-20 16:34:26:005
-0.699107,-1.082179,4.496311,0.0,49.847973,24.03651,389.0,NaN,3.708,11.0,120.9,14 / 14,3531,2020-03-20 16:34:26:506
3.433285,-8.796297,-0.469264,0.0,49.847973,24.03651,389.0,NaN,3.708,11.0,120.9,14 / 14,4030,2020-03-20 16:34:27:005
2.681506,-19.503166,4.951209,0.0,49.847973,24.03651,389.0,NaN,3.708,11.0,120.9,14 / 14,4530,2020-03-20 16:34:27:505
9.107543,-7.335834,21.131224,0.0,49.847973,24.03651,389.0,NaN,3.708,11.0,120.9,14 / 14,5030,2020-03-20 16:34:28:005
5.837064,-10.448297,-4.879383,0.0,49.847973,24.03651,389.0,NaN,3.708,11.0,120.9,14 / 14,5531,2020-03-20 16:34:28:506
-1.905785,-9.471462,-7.570465,0.0,49.847973,24.03651,389.0,NaN,3.708,11.0,120.9,14 / 14,6030,2020-03-20 16:34:29:005
6.612785,-8.60955,-3.260903,0.0,49.847973,24.03651,389.0,NaN,3.708,11.0,120.9,14 / 14,6531,2020-03-20 16:34:29:506
-3.849876,-1.651999,4.759673,0.0,49.847973,24.03651,389.0,NaN,3.708,11.0,120.9,14 / 14,7030,2020-03-20 16:34:30:005
0.277727,-4.630386,-4.955997,0.0,49.847973,24.03651,389.0,NaN,3.708,11.0,120.9,14 / 14,7530,2020-03-20 16:34:30:505
8.844181,-15.98369,-3.366248,0.0,49.847973,24.03651,389.0,NaN,3.708,11.0,120.9,14 / 14,8031,2020-03-20 16:34:31:006
9.030929,0.756568,23.247698,0.0,49.847973,24.03651,389.0,NaN,3.708,11.0,120.9,14 / 14,8530,2020-03-20 16:34:31:505
6.564901,-9.56723,-1.584961,0.0,49.847973,24.03651,389.0,NaN,3.708,11.0,120.9,14 / 14,9030,2020-03-20 16:34:32:005
-0.344765,-3.926491,-8.781932,0.0,49.847973,24.03651,389.0,NaN,3.708,11.0,120.9,14 / 14,9531,2020-03-20 16:34:32:506
3.260903,-9.80665,-11.540052,0.0,49.847973,24.03651,389.0,NaN,3.708,11.0,120.9,14 / 14,10030,2020-03-20 16:34:33:005
-2.499546,-5.176264,2.049437,0.0,49.847973,24.03651,389.0,NaN,3.708,11.0,120.9,14 / 14,10530,2020-03-20 16:34:33:505
12.344504,-15.097836,3.232172,0.0,49.847973,24.03651,389.0,NaN,3.708,11.0,120.9,14 / 14,11030,2020-03-20 16:34:34:005
4.180277,-19.120094,5.171476,0.0,49.847973,24.03651,389.0,NaN,3.708,11.0,120.9,14 / 14,11530,2020-03-20 16:34:34:505
16.218323,-30.86126,-23.716963,0.0,49.847973,24.03651,389.0,NaN,3.708,11.0,120.9,14 / 14,12030,2020-03-20 16:34:35:005
10.989386,-8.561666,0.679953,0.0,49.847973,24.03651,389.0,NaN,3.708,11.0,120.9,14 / 14,12531,2020-03-20 16:34:35:506
-0.268151,-4.879383,-5.449203,0.0,49.847973,24.03651,389.0,NaN,3.708,11.0,120.9,14 / 14,13030,2020-03-20 16:34:36:005
4.702213,-4.338293,-0.378284,0.0,49.847973,24.03651,389.0,NaN,3.708,11.0,120.9,14 / 14,13530,2020-03-20 16:34:36:505
-0.196325,-0.651223,1.106121,0.0,49.847973,24.03651,389.0,NaN,3.708,11.0,120.9,14 / 14,14030,2020-03-20 16:34:37:005
4.922479,-5.612008,0.636858,0.0,49.847973,24.03651,389.0,NaN,3.708,11.0,120.9,14 / 14,14530,2020-03-20 16:34:37:505
8.561666,-3.672705,3.576938,0.0,49.847973,24.03651,389.0,NaN,3.708,11.0,120.9,14 / 14,15030,2020-03-20 16:34:38:005
12.334928,-15.155296,8.781932,0.0,49.847973,24.03651,389.0,NaN,3.708,11.0,120.9,14 / 14,15530,2020-03-20 16:34:38:505
2.25055,-24.598028,0.033519,0.0,49.847973,24.03651,389.0,NaN,3.708,11.0,120.9,14 / 14,16031,2020-03-20 16:34:39:006
36.094982,-36.607346,-36.875496,0.0,49.847973,24.03651,389.0,NaN,3.708,11.0,120.9,14 / 14,16531,2020-03-20 16:34:39:506
4.754885,-6.205771,2.178724,0.0,49.847973,24.03651,389.0,NaN,3.708,11.0,120.9,14 / 14,17030,2020-03-20 16:34:40:005
-1.47004,-4.764461,4.036624,0.0,49.847973,24.03651,389.0,NaN,3.708,11.0,120.9,14 / 14,17530,2020-03-20 16:34:40:505
3.98874,-6.952761,-1.915361,0.0,49.847973,24.03651,389.0,NaN,3.708,11.0,120.9,14 / 14,18031,2020-03-20 16:34:41:006
8.049306,-6.426037,4.826711,0.0,49.847973,24.03651,389.0,NaN,3.708,11.0,120.9,14 / 14,18530,2020-03-20 16:34:41:505
0.095768,-10.606314,-3.141193,0.0,49.847973,24.03651,389.0,NaN,3.708,11.0,120.9,14 / 14,19030,2020-03-20 16:34:42:005
8.959103,-9.016563,-4.831499,0.0,49.847973,24.03651,389.0,NaN,3.708,11.0,120.9,14 / 14,19531,2020-03-20 16:34:42:506
1.675941,-9.021352,-8.336611,0.0,49.847973,24.03651,389.0,NaN,3.708,11.0,120.9,14 / 14,20030,2020-03-20 16:34:43:005
6.220136,-6.876147,0.651223,0.0,49.847973,24.03651,389.0,NaN,3.708,11.0,120.9,14 / 14,20530,2020-03-20 16:34:43:505
5.453992,-4.448426,3.557784,0.0,49.847973,24.03651,389.0,NaN,3.708,11.0,120.9,14 / 14,21030,2020-03-20 16:34:44:005
12.368446,-16.994043,10.31901,0.0,49.847973,24.03651,389.0,NaN,3.708,11.0,120.9,14 / 14,21531,2020-03-20 16:34:44:506
5.295975,-4.065354,2.063802,0.0,49.847973,24.03651,389.0,NaN,3.708,11.0,120.9,14 / 14,22030,2020-03-20 16:34:45:005
7.647081,-12.785037,3.567361,0.0,49.847973,24.03651,389.0,NaN,3.708,11.0,120.9,14 / 14,22530,2020-03-20 16:34:45:505
4.1707,-17.367538,-3.892972,0.0,49.847973,24.03651,389.0,NaN,3.708,11.0,120.9,14 / 14,23031,2020-03-20 16:34:46:006
2.504335,-11.903971,-7.038953,0.0,49.847973,24.03651,389.0,NaN,3.708,11.0,120.9,14 / 14,23531,2020-03-20 16:34:46:506
7.058107,-7.493851,-2.585738,0.0,49.847973,24.03651,389.0,NaN,3.708,11.0,120.9,14 / 14,24030,2020-03-20 16:34:47:005
-1.968034,-5.358223,3.39019,0.0,49.847973,24.03651,389.0,NaN,3.708,11.0,120.9,14 / 14,24530,2020-03-20 16:34:47:505
-2.72939,-3.126827,-5.324704,0.0,49.847973,24.03651,389.0,NaN,3.708,11.0,120.9,14 / 14,25030,2020-03-20 16:34:48:005
8.078037,-15.08347,-3.303998,0.0,49.847973,24.03651,389.0,NaN,3.708,11.0,120.9,14 / 14,25530,2020-03-20 16:34:48:505
7.350199,-10.448297,-7.560889,0.0,49.847973,24.03651,389.0,NaN,3.708,11.0,120.9,14 / 14,26031,2020-03-20 16:34:49:006
1.762132,-20.824766,2.523489,0.0,49.847973,24.03651,389.0,NaN,3.708,11.0,120.9,14 / 14,26530,2020-03-20 16:34:49:505
-1.091756,1.910573,35.620934,0.0,49.847973,24.03651,389.0,NaN,3.708,11.0,120.9,14 / 14,27030,2020-03-20 16:34:50:005
11.592725,-5.664681,2.753332,0.0,49.847973,24.03651,389.0,NaN,3.708,11.0,120.9,14 / 14,27530,2020-03-20 16:34:50:505
0.383072,-3.074155,1.369483,0.0,49.847973,24.03651,389.0,NaN,3.708,11.0,120.9,14 / 14,28031,2020-03-20 16:34:51:006
2.351106,-3.083732,0.876278,0.0,49.847973,24.03651,389.0,NaN,3.708,11.0,120.9,14 / 14,28530,2020-03-20 16:34:51:505
7.718907,-5.717354,2.126051,0.0,49.847973,24.03651,389.0,NaN,3.708,11.0,120.9,14 / 14,29031,2020-03-20 16:34:52:006
10.371682,-20.09214,13.297397,0.0,49.847973,24.03651,389.0,NaN,3.708,11.0,120.9,14 / 14,29530,2020-03-20 16:34:52:505
8.221689,-8.499416,-6.066907,0.0,49.847973,24.03651,389.0,NaN,3.708,11.0,120.9,14 / 14,30031,2020-03-20 16:34:53:006
7.268797,-2.935291,5.195418,0.0,49.847973,24.03651,389.0,NaN,3.708,11.0,120.9,14 / 14,30531,2020-03-20 16:34:53:506
7.991845,-7.546523,-8.394072,0.0,49.847973,24.03651,389.0,NaN,3.708,11.0,120.9,14 / 14,31030,2020-03-20 16:34:54:005
4.620809,-10.936713,-10.089166,0.0,49.847973,24.03651,389.0,NaN,3.708,11.0,120.9,14 / 14,31530,2020-03-20 16:34:54:505
2.863465,-8.796297,-3.902549,0.0,49.847973,24.03651,389.0,NaN,3.708,11.0,120.9,14 / 14,32031,2020-03-20 16:34:55:006
1.671153,-3.457227,4.750097,0.0,49.847973,24.03651,389.0,NaN,3.708,11.0,120.9,14 / 14,32531,2020-03-20 16:34:55:506
2.585738,-9.821015,-0.833182,0.0,49.847973,24.03651,389.0,NaN,3.708,11.0,120.9,14 / 14,33030,2020-03-20 16:34:56:005
4.419697,-28.510155,2.097321,0.0,49.847973,24.03651,389.0,NaN,3.708,11.0,120.9,14 / 14,33530,2020-03-20 16:34:56:505
2.379837,-5.894524,-9.888053,0.0,49.847973,24.03651,389.0,NaN,3.708,11.0,120.9,14 / 14,34030,2020-03-20 16:34:57:005
3.711013,-21.226992,3.643975,0.0,49.847973,24.03651,389.0,NaN,3.708,11.0,120.9,14 / 14,34531,2020-03-20 16:34:57:506
-3.141193,-3.198653,3.888184,0.0,49.847973,24.03651,389.0,NaN,3.708,11.0,120.9,14 / 14,35030,2020-03-20 16:34:58:005
2.930503,-10.869676,-23.305159,0.0,49.847973,24.03651,389.0,NaN,3.708,11.0,120.9,14 / 14,35530,2020-03-20 16:34:58:505
6.943185,-7.627927,-6.344634,0.0,49.847973,24.03651,389.0,NaN,3.708,11.0,120.9,14 / 14,36030,2020-03-20 16:34:59:005
2.853889,-3.782838,-0.440533,0.0,49.847973,24.03651,389.0,NaN,3.708,11.0,120.9,14 / 14,36530,2020-03-20 16:34:59:505
2.054225,-2.614468,2.183512,0.0,49.847973,24.03651,389.0,NaN,3.708,11.0,120.9,14 / 14,37030,2020-03-20 16:35:00:005
0.684742,-5.501875,0.459687,0.0,49.847973,24.03651,389.0,NaN,3.708,11.0,120.9,14 / 14,37531,2020-03-20 16:35:00:506
0.459687,-2.99754,-0.469264,0.0,49.847973,24.03651,389.0,NaN,3.708,11.0,120.9,14 / 14,38031,2020-03-20 16:35:01:006
5.736508,-7.07726,-1.374272,0.0,49.847973,24.03651,389.0,NaN,3.708,11.0,120.9,14 / 14,38530,2020-03-20 16:35:01:505
1.163582,-5.425261,-1.01993,0.0,49.847973,24.03651,389.0,NaN,3.708,11.0,120.9,14 / 14,39030,2020-03-20 16:35:02:005
0.775721,-8.987833,-10.70687,0.0,49.847973,24.03651,389.0,NaN,3.708,11.0,120.9,14 / 14,39531,2020-03-20 16:35:02:506
5.846641,-17.496826,-4.453215,0.0,49.847973,24.03651,389.0,NaN,3.708,11.0,120.9,14 / 14,40030,2020-03-20 16:35:03:005
8.652645,-15.95496,2.437297,0.0,49.847973,24.03651,389.0,NaN,3.708,11.0,120.9,14 / 14,40531,2020-03-20 16:35:03:506
6.258444,-8.537724,0.833182,0.0,49.847973,24.03651,389.0,NaN,3.708,11.0,120.9,14 / 14,41031,2020-03-20 16:35:04:006
2.499547,-2.408567,-0.804452,0.0,49.847973,24.03651,389.0,NaN,3.708,11.0,120.9,14 / 14,41530,2020-03-20 16:35:04:505
2.839523,-8.99741,-3.026271,0.0,49.847973,24.03651,389.0,NaN,3.708,11.0,120.9,14 / 14,42030,2020-03-20 16:35:05:005
3.318364,-6.83784,-1.297657,0.0,49.847973,24.03651,389.0,NaN,3.708,11.0,120.9,14 / 14,42531,2020-03-20 16:35:05:506
5.224149,-13.220781,-15.02601,0.0,49.847973,24.03651,389.0,NaN,3.708,11.0,120.9,14 / 14,43031,2020-03-20 16:35:06:006
1.331176,-4.994304,-0.967257,0.0,49.847973,24.03651,389.0,NaN,3.708,11.0,120.9,14 / 14,43530,2020-03-20 16:35:06:505
-4.869806,-5.583278,-26.915615,0.0,49.847973,24.03651,389.0,NaN,3.708,11.0,120.9,14 / 14,44030,2020-03-20 16:35:07:005
9.557653,-27.31784,-2.935291,0.0,49.847973,24.03651,389.0,NaN,3.708,11.0,120.9,14 / 14,44530,2020-03-20 16:35:07:505
13.239936,-22.783224,-6.962338,0.0,49.847973,24.03651,389.0,NaN,3.708,11.0,120.9,14 / 14,45031,2020-03-20 16:35:08:006
5.257667,-12.550406,-8.15465,0.0,49.847973,24.03651,389.0,NaN,3.708,11.0,120.9,14 / 14,45530,2020-03-20 16:35:08:505
1.867477,-13.000515,-8.954314,0.0,49.847973,24.03651,389.0,NaN,3.708,11.0,120.9,14 / 14,46031,2020-03-20 16:35:09:006
1.632846,-6.488286,1.326388,0.0,49.847973,24.03651,389.0,NaN,3.708,11.0,120.9,14 / 14,46530,2020-03-20 16:35:09:505
1.991976,-4.58729,0.229843,0.0,49.847973,24.03651,389.0,NaN,3.708,11.0,120.9,14 / 14,47030,2020-03-20 16:35:10:005
9.394848,-7.28795,-6.311115,0.0,49.847973,24.03651,389.0,NaN,3.708,11.0,120.9,14 / 14,47530,2020-03-20 16:35:10:505
8.944737,-5.84664,-11.439496,0.0,49.847973,24.03651,389.0,NaN,3.708,11.0,120.9,14 / 14,48031,2020-03-20 16:35:11:006
4.414908,-7.996633,-5.841852,0.0,49.847973,24.03651,389.0,NaN,3.708,11.0,120.9,14 / 14,48530,2020-03-20 16:35:11:505
8.264784,-5.861006,1.417368,0.0,49.847973,24.03651,389.0,NaN,3.708,11.0,120.9,14 / 14,49030,2020-03-20 16:35:12:005
3.15077,-4.644751,-7.340622,0.0,49.847973,24.03651,389.0,NaN,3.708,11.0,120.9,14 / 14,49530,2020-03-20 16:35:12:505
-1.072602,-3.409343,-0.076614,0.0,49.847973,24.03651,389.0,NaN,3.708,11.0,120.9,14 / 14,50031,2020-03-20 16:35:13:006
4.041412,-6.842628,-0.885855,0.0,49.847973,24.03651,389.0,NaN,3.708,11.0,120.9,14 / 14,50530,2020-03-20 16:35:13:505
-0.948104,-1.149217,0.181959,0.0,49.847973,24.03651,389.0,NaN,3.708,11.0,120.9,14 / 14,51030,2020-03-20 16:35:14:005
3.500323,-4.381389,-0.785298,0.0,49.847973,24.03651,389.0,NaN,3.708,11.0,120.9,14 / 14,51530,2020-03-20 16:35:14:505
4.716578,-4.668693,4.007894,0.0,49.847973,24.03651,389.0,NaN,3.708,11.0,120.9,14 / 14,52031,2020-03-20 16:35:15:006
1.235408,-4.247314,-2.059013,0.0,49.847973,24.03651,389.0,NaN,3.708,11.0,120.9,14 / 14,52530,2020-03-20 16:35:15:505
0.617704,-4.3766,1.063026,0.0,49.847973,24.03651,389.0,NaN,3.708,11.0,120.9,14 / 14,53030,2020-03-20 16:35:16:005
3.141193,-5.027823,-2.580949,0.0,49.847973,24.03651,389.0,NaN,3.708,11.0,120.9,14 / 14,53530,2020-03-20 16:35:16:505
1.958457,-6.382941,-1.154005,0.0,49.847973,24.03651,389.0,NaN,3.708,11.0,120.9,14 / 14,54031,2020-03-20 16:35:17:006
5.798757,-11.626244,1.206678,0.0,49.847973,24.03651,389.0,NaN,3.708,11.0,120.9,14 / 14,54531,2020-03-20 16:35:17:506
-0.201113,-4.687847,0.35913,0.0,49.847973,24.03651,389.0,NaN,3.708,11.0,120.9,14 / 14,55030,2020-03-20 16:35:18:005
6.071696,-3.89776,0.675165,0.0,49.847973,24.03651,389.0,NaN,3.708,11.0,120.9,14 / 14,55530,2020-03-20 16:35:18:505
0.277727,-3.021482,3.457227,0.0,49.847973,24.03651,389.0,NaN,3.708,11.0,120.9,14 / 14,56030,2020-03-20 16:35:19:005
8.896853,-9.643845,-7.76679,0.0,49.847973,24.03651,389.0,NaN,3.708,11.0,120.9,14 / 14,56531,2020-03-20 16:35:19:506
7.896077,-9.859323,-2.322375,0.0,49.847973,24.03651,389.0,NaN,3.708,11.0,120.9,14 / 14,57031,2020-03-20 16:35:20:006
2.619257,-7.781155,-4.984728,0.0,49.847973,24.03651,389.0,NaN,3.708,11.0,120.9,14 / 14,57530,2020-03-20 16:35:20:505
1.671153,-4.893748,-0.775721,0.0,49.847973,24.03651,389.0,NaN,3.708,11.0,120.9,14 / 14,58031,2020-03-20 16:35:21:006
-0.828394,-3.864241,0.253785,0.0,49.847973,24.03651,389.0,NaN,3.708,11.0,120.9,14 / 14,58530,2020-03-20 16:35:21:505
5.702989,-8.978256,-9.356541,0.0,49.847973,24.03651,389.0,NaN,3.708,11.0,120.9,14 / 14,59030,2020-03-20 16:35:22:005
0.043096,-1.575385,0.397437,0.0,49.847973,24.03651,389.0,NaN,3.708,11.0,120.9,14 / 14,59531,2020-03-20 16:35:22:506
0.086191,-9.346964,1.125275,0.0,49.847973,24.03651,389.0,NaN,3.708,11.0,120.9,14 / 14,60031,2020-03-20 16:35:23:006
7.920019,-22.486341,-6.378153,0.0,49.847973,24.03651,389.0,NaN,3.708,11.0,120.9,14 / 14,60530,2020-03-20 16:35:23:505
-4.338293,5.137957,19.82878,0.0,49.847973,24.03651,389.0,NaN,3.708,11.0,120.9,14 / 14,61031,2020-03-20 16:35:24:006
5.118803,-8.135497,-0.368707,0.0,49.847973,24.03651,389.0,NaN,3.708,11.0,120.9,14 / 14,61531,2020-03-20 16:35:24:506
0.833182,-1.991976,1.853112,0.0,49.847973,24.03651,389.0,NaN,3.708,11.0,120.9,14 / 14,62030,2020-03-20 16:35:25:005
3.552995,-16.567875,2.509123,0.0,49.847973,24.03651,389.0,NaN,3.708,11.0,120.9,14 / 14,62531,2020-03-20 16:35:25:506
0.502782,-3.265691,2.844312,0.0,49.847973,24.03651,389.0,NaN,3.708,11.0,120.9,14 / 14,63030,2020-03-20 16:35:26:005
7.11078,-6.584054,-1.115698,0.0,49.847973,24.03651,389.0,NaN,3.708,11.0,120.9,14 / 14,63530,2020-03-20 16:35:26:505
3.950433,-1.896208,-3.332729,0.0,49.847973,24.03651,389.0,NaN,3.708,11.0,120.9,14 / 14,64031,2020-03-20 16:35:27:006
2.719813,-17.54471,-21.547815,0.0,49.847973,24.03651,389.0,NaN,3.708,11.0,120.9,14 / 14,64530,2020-03-20 16:35:27:505
13.991714,-9.615114,-16.40507,0.0,49.847973,24.03651,389.0,NaN,3.708,11.0,120.9,14 / 14,65030,2020-03-20 16:35:28:005
2.782062,-8.236053,-5.712565,0.0,49.847973,24.03651,389.0,NaN,3.708,11.0,120.9,14 / 14,65530,2020-03-20 16:35:28:505
6.263232,-4.673482,-7.240066,0.0,49.847973,24.03651,389.0,NaN,3.708,11.0,120.9,0 / 0,66030,2020-03-20 16:35:29:005
3.481169,-6.579266,-9.361329,0.0,49.847973,24.03651,389.0,NaN,3.708,11.0,120.9,0 / 0,66531,2020-03-20 16:35:29:506
6.943185,-3.998317,-0.71826,0.0,49.847973,24.03651,389.0,NaN,3.708,11.0,120.9,0 / 0,67030,2020-03-20 16:35:30:005
10.036493,-7.10599,-0.114922,0.0,49.847973,24.03651,389.0,NaN,3.708,11.0,120.9,0 / 0,67531,2020-03-20 16:35:30:506
2.829947,-8.523358,-1.556231,0.0,49.847973,24.03651,389.0,NaN,3.708,11.0,120.9,0 / 4,68031,2020-03-20 16:35:31:006
1.043872,-25.25404,-1.091756,0.0,49.847973,24.03651,389.0,NaN,3.708,11.0,120.9,0 / 4,68530,2020-03-20 16:35:31:505
4.797981,-5.612008,-5.33907,0.0,49.847973,24.03651,389.0,NaN,3.708,11.0,120.9,0 / 8,69030,2020-03-20 16:35:32:005
2.240973,-4.041412,-3.514688,0.0,49.847973,24.03651,389.0,NaN,3.708,11.0,120.9,0 / 8,69531,2020-03-20 16:35:32:506
0.392649,-18.2917,-12.694057,0.0,49.847973,24.03651,389.0,NaN,3.708,11.0,120.9,15 / 15,70030,2020-03-20 16:35:33:005
6.411672,-5.813122,0.114922,0.0,49.847427,24.03989,409.0,NaN,5.184,22.499998,337.1,15 / 15,70530,2020-03-20 16:35:33:505
1.273715,-10.951078,-8.441956,0.0,49.847427,24.03989,409.0,NaN,5.184,22.499998,337.1,15 / 15,71030,2020-03-20 16:35:34:005
4.132392,-7.201759,3.691859,0.0,49.847427,24.03989,409.0,NaN,5.184,22.499998,337.1,15 / 15,71530,2020-03-20 16:35:34:505
1.120486,-8.384495,-7.201759,0.0,49.847427,24.03989,409.0,NaN,5.184,22.499998,337.1,15 / 15,72031,2020-03-20 16:35:35:006
4.946421,-5.549759,-1.824382,0.0,49.847427,24.03989,409.0,NaN,5.184,22.499998,337.1,15 / 15,72531,2020-03-20 16:35:35:506
5.851429,-13.297397,-4.453215,0.0,49.847427,24.03989,409.0,NaN,5.184,22.499998,337.1,15 / 15,73030,2020-03-20 16:35:36:005
0.751779,-8.978256,-5.209783,0.0,49.847427,24.03989,409.0,NaN,5.184,22.499998,337.1,15 / 15,73530,2020-03-20 16:35:36:505
3.98874,-6.794744,-5.535394,0.0,49.847427,24.03989,409.0,NaN,5.184,22.499998,337.1,15 / 15,74031,2020-03-20 16:35:37:006
0.986411,-15.59583,-16.25184,0.0,49.847427,24.03989,409.0,NaN,5.184,22.499998,337.1,15 / 15,74530,2020-03-20 16:35:37:505
6.196194,-6.842628,-1.742979,0.0,49.847427,24.03989,409.0,NaN,5.184,22.499998,337.1,15 / 15,75030,2020-03-20 16:35:38:005
-0.756568,-2.99754,0.043096,0.0,49.847427,24.03989,409.0,NaN,5.184,22.499998,337.1,15 / 15,75530,2020-03-20 16:35:38:505
4.64954,-7.623138,-1.642422,0.0,49.847427,24.03989,409.0,NaN,5.184,22.499998,337.1,15 / 15,76031,2020-03-20 16:35:39:006
-1.733402,-5.334281,2.533065,0.0,49.847427,24.03989,409.0,NaN,5.184,22.499998,337.1,15 / 15,76531,2020-03-20 16:35:39:506
2.169147,-10.261548,0.938527,0.0,49.847427,24.03989,409.0,NaN,5.184,22.499998,337.1,15 / 15,77030,2020-03-20 16:35:40:005
4.826711,-19.22544,3.442862,0.0,49.847427,24.03989,409.0,NaN,5.184,22.499998,337.1,15 / 15,77530,2020-03-20 16:35:40:505
-2.494758,-13.062764,-12.004527,0.0,49.847427,24.03989,409.0,NaN,5.184,22.499998,337.1,15 / 15,78031,2020-03-20 16:35:41:006
2.734178,-2.825158,-1.460463,0.0,49.847427,24.03989,409.0,NaN,5.184,22.499998,337.1,15 / 15,78530,2020-03-20 16:35:41:505
1.388637,-5.66947,-1.987187,0.0,49.847427,24.03989,409.0,NaN,5.184,22.499998,337.1,15 / 15,79030,2020-03-20 16:35:42:005
2.116475,-16.266207,2.691083,0.0,49.847427,24.03989,409.0,NaN,5.184,22.499998,337.1,15 / 15,79531,2020-03-20 16:35:42:506
11.93749,-21.9261,-2.944868,0.0,49.847427,24.03989,409.0,NaN,5.184,22.499998,337.1,15 / 15,80030,2020-03-20 16:35:43:005
2.585738,-6.98628,-5.980716,0.0,49.847427,24.03989,409.0,NaN,5.184,22.499998,337.1,15 / 15,80530,2020-03-20 16:35:43:505
3.442862,-6.751649,-0.009577,0.0,49.847427,24.03989,409.0,NaN,5.184,22.499998,337.1,15 / 15,81031,2020-03-20 16:35:44:006
1.067814,-5.061342,3.624822,0.0,49.847427,24.03989,409.0,NaN,5.184,22.499998,337.1,15 / 15,81531,2020-03-20 16:35:44:506
6.497864,-9.56723,-8.657434,0.0,49.847427,24.03989,409.0,NaN,5.184,22.499998,337.1,15 / 15,82030,2020-03-20 16:35:45:005
4.754885,-13.388376,-3.485957,0.0,49.847427,24.03989,409.0,NaN,5.184,22.499998,337.1,15 / 15,82530,2020-03-20 16:35:45:505
2.394202,-0.56982,-3.754108,0.0,49.847427,24.03989,409.0,NaN,5.184,22.499998,337.1,15 / 15,83031,2020-03-20 16:35:46:006
3.830723,-2.446874,1.61848,0.0,49.847427,24.03989,409.0,NaN,5.184,22.499998,337.1,15 / 15,83530,2020-03-20 16:35:46:505
5.865794,-8.39886,2.590526,0.0,49.847427,24.03989,409.0,NaN,5.184,22.499998,337.1,15 / 15,84030,2020-03-20 16:35:47:005
1.04866,-10.788273,-5.27682,0.0,49.847427,24.03989,409.0,NaN,5.184,22.499998,337.1,15 / 15,84531,2020-03-20 16:35:47:506
9.255983,-8.212111,-21.543026,0.0,49.847427,24.03989,409.0,NaN,5.184,22.499998,337.1,15 / 15,85030,2020-03-20 16:35:48:005
2.566584,2.073379,-5.013458,0.0,49.847427,24.03989,409.0,NaN,5.184,22.499998,337.1,15 / 15,85531,2020-03-20 16:35:48:506
5.157111,-7.522581,-0.062249,0.0,49.847427,24.03989,409.0,NaN,5.184,22.499998,337.1,15 / 15,86030,2020-03-20 16:35:49:005
-1.781286,-2.327164,3.016694,0.0,49.847427,24.03989,409.0,NaN,5.184,22.499998,337.1,15 / 15,86530,2020-03-20 16:35:49:505
2.652776,-4.577713,-1.570596,0.0,49.847427,24.03989,409.0,NaN,5.184,22.499998,337.1,15 / 15,87031,2020-03-20 16:35:50:006
7.249643,-8.51857,-1.661576,0.0,49.847427,24.03989,409.0,NaN,5.184,22.499998,337.1,15 / 15,87530,2020-03-20 16:35:50:505
10.189722,-28.467058,-39.188293,0.0,49.847427,24.03989,409.0,NaN,5.184,22.499998,337.1,15 / 15,88030,2020-03-20 16:35:51:005
5.554548,-17.3005,-5.932832,0.0,49.847427,24.03989,409.0,NaN,5.184,22.499998,337.1,15 / 15,88530,2020-03-20 16:35:51:505
6.373365,-7.651869,1.120486,0.0,49.847427,24.03989,409.0,NaN,5.184,22.499998,337.1,15 / 15,89031,2020-03-20 16:35:52:006
8.197747,-11.358093,1.474828,0.0,49.847427,24.03989,409.0,NaN,5.184,22.499998,337.1,15 / 15,89530,2020-03-20 16:35:52:505
-10.453085,4.314352,-4.31914,0.0,49.847427,24.03989,409.0,NaN,5.184,22.499998,337.1,15 / 15,90031,2020-03-20 16:35:53:006
7.019799,-9.533711,-0.311246,0.0,49.847427,24.03989,409.0,NaN,5.184,22.499998,337.1,15 / 15,90530,2020-03-20 16:35:53:505
-2.149993,-7.958326,-7.896077,0.0,49.847427,24.03989,409.0,NaN,5.184,22.499998,337.1,15 / 15,91030,2020-03-20 16:35:54:005
4.644751,-7.967903,-1.853112,0.0,49.847427,24.03989,409.0,NaN,5.184,22.499998,337.1,15 / 15,91531,2020-03-20 16:35:54:506
5.60722,-16.874334,0.924162,0.0,49.847427,24.03989,409.0,NaN,5.184,22.499998,337.1,15 / 15,92031,2020-03-20 16:35:55:006
4.055778,-10.850522,-5.621585,0.0,49.847427,24.03989,409.0,NaN,5.184,22.499998,337.1,15 / 15,92530,2020-03-20 16:35:55:505
3.064578,-5.530606,-1.896208,0.0,49.847427,24.03989,409.0,NaN,5.184,22.499998,337.1,15 / 15,93030,2020-03-20 16:35:56:005
0.124498,-2.777274,0.766145,0.0,49.847427,24.03989,409.0,NaN,5.184,22.499998,337.1,15 / 15,93531,2020-03-20 16:35:56:506
6.11958,-5.080496,-2.523488,0.0,49.847427,24.03989,409.0,NaN,5.184,22.499998,337.1,15 / 15,94031,2020-03-20 16:35:57:006
0.363919,-3.830723,1.192313,0.0,49.847427,24.03989,409.0,NaN,5.184,22.499998,337.1,15 / 15,94530,2020-03-20 16:35:57:505
6.033388,-6.143522,-4.070143,0.0,49.847427,24.03989,409.0,NaN,5.184,22.499998,337.1,15 / 15,95030,2020-03-20 16:35:58:005
14.800955,-11.631032,-6.282385,0.0,49.847427,24.03989,409.0,NaN,5.184,22.499998,337.1,15 / 15,95530,2020-03-20 16:35:58:505
4.630386,-6.047753,-2.102109,0.0,49.847427,24.03989,409.0,NaN,5.184,22.499998,337.1,15 / 15,96031,2020-03-20 16:35:59:006
-0.062249,-5.272032,-2.810793,0.0,49.847427,24.03989,409.0,NaN,5.184,22.499998,337.1,15 / 15,96531,2020-03-20 16:35:59:506
3.294422,-7.963114,-2.375048,0.0,49.847427,24.03989,409.0,NaN,5.184,22.499998,337.1,15 / 15,97030,2020-03-20 16:36:00:005
5.171476,-7.16824,4.122815,0.0,49.847427,24.03989,409.0,NaN,5.184,22.499998,337.1,15 / 15,97530,2020-03-20 16:36:00:505
14.796166,-0.56982,12.540829,0.0,49.847427,24.03989,409.0,NaN,5.184,22.499998,337.1,15 / 15,98030,2020-03-20 16:36:01:005
6.416461,-5.334281,-2.470816,0.0,49.847427,24.03989,409.0,NaN,5.184,22.499998,337.1,15 / 15,98531,2020-03-20 16:36:01:506
5.861006,-7.086837,-6.560112,0.0,49.847427,24.03989,409.0,NaN,5.184,22.499998,337.1,15 / 15,99031,2020-03-20 16:36:02:006
3.634398,-5.430049,-3.600879,0.0,49.847427,24.03989,409.0,NaN,5.184,22.499998,337.1,15 / 15,99530,2020-03-20 16:36:02:505
6.220136,-8.130708,1.125275,0.0,49.847427,24.03989,409.0,NaN,5.184,22.499998,337.1,15 / 15,100030,2020-03-20 16:36:03:005
8.657434,-1.49877,-4.414908,0.0,49.847427,24.03989,409.0,NaN,5.184,22.499998,337.1,15 / 15,100531,2020-03-20 16:36:03:506
11.444284,-16.620548,-15.658079,0.0,49.847427,24.03989,409.0,NaN,5.184,22.499998,337.1,15 / 15,101031,2020-03-20 16:36:04:006
7.565677,-6.766014,-2.63841,0.0,49.847427,24.03989,409.0,NaN,5.184,22.499998,337.1,15 / 15,101531,2020-03-20 16:36:04:506
-0.804452,-3.672705,2.135628,0.0,49.847427,24.03989,409.0,NaN,5.184,22.499998,337.1,15 / 15,102030,2020-03-20 16:36:05:005
3.8403,-7.814674,4.027047,0.0,49.847427,24.03989,409.0,NaN,5.184,22.499998,337.1,15 / 15,102531,2020-03-20 16:36:05:506
0.579397,-7.714118,-1.905785,0.0,49.847427,24.03989,409.0,NaN,5.184,22.499998,337.1,15 / 15,103031,2020-03-20 16:36:06:006
13.733141,-5.324704,13.086706,0.0,49.847427,24.03989,409.0,NaN,5.184,22.499998,337.1,15 / 15,103530,2020-03-20 16:36:06:505
6.421249,-14.322115,-3.107674,0.0,49.847427,24.03989,409.0,NaN,5.184,22.499998,337.1,15 / 15,104031,2020-03-20 16:36:07:006
5.114015,-6.74686,3.15077,0.0,49.847427,24.03989,409.0,NaN,5.184,22.499998,337.1,15 / 15,104531,2020-03-20 16:36:07:506
5.841852,-4.400542,-2.647987,0.0,49.847427,24.03989,409.0,NaN,5.184,22.499998,337.1,15 / 15,105030,2020-03-20 16:36:08:005
5.401319,-9.150639,-9.097966,0.0,49.847427,24.03989,409.0,NaN,5.184,22.499998,337.1,15 / 15,105531,2020-03-20 16:36:08:506
5.559336,-14.5759,15.705963,0.0,49.847427,24.03989,409.0,NaN,5.184,22.499998,337.1,15 / 15,106030,2020-03-20 16:36:09:005
7.125145,-9.935937,-5.544971,0.0,49.847427,24.03989,409.0,NaN,5.184,22.499998,337.1,15 / 15,106530,2020-03-20 16:36:09:505
10.247183,-16.28536,3.002329,0.0,49.847427,24.03989,409.0,NaN,5.184,22.499998,337.1,15 / 15,107031,2020-03-20 16:36:10:006
-2.786851,-10.912771,-5.056554,0.0,49.847427,24.03989,409.0,NaN,5.184,22.499998,337.1,15 / 15,107531,2020-03-20 16:36:10:506
7.474698,-6.756437,-3.524265,0.0,49.847427,24.03989,409.0,NaN,5.184,22.499998,337.1,15 / 15,108030,2020-03-20 16:36:11:005
0.23942,-5.588066,-6.047753,0.0,49.847427,24.03989,409.0,NaN,5.184,22.499998,337.1,15 / 15,108530,2020-03-20 16:36:11:505
8.978256,-5.889736,1.417368,0.0,49.847427,24.03989,409.0,NaN,5.184,22.499998,337.1,15 / 15,109031,2020-03-20 16:36:12:006
1.628057,-3.634398,0.067038,0.0,49.847427,24.03989,409.0,NaN,5.184,22.499998,337.1,15 / 15,109531,2020-03-20 16:36:12:506
6.665458,-4.022259,-5.741296,0.0,49.847427,24.03989,409.0,NaN,5.184,22.499998,337.1,15 / 15,110030,2020-03-20 16:36:13:005
-2.987964,-3.026271,1.862689,0.0,49.847427,24.03989,409.0,NaN,5.184,22.499998,337.1,15 / 15,110530,2020-03-20 16:36:13:505
4.955998,-6.86657,1.934515,0.0,49.847427,24.03989,409.0,NaN,5.184,22.499998,337.1,15 / 15,111030,2020-03-20 16:36:14:005
0.627281,-4.031835,-0.397437,0.0,49.847427,24.03989,409.0,NaN,5.184,22.499998,337.1,15 / 15,111531,2020-03-20 16:36:14:506
5.904102,-8.049306,-2.001553,0.0,49.847427,24.03989,409.0,NaN,5.184,22.499998,337.1,15 / 15,112030,2020-03-20 16:36:15:005
-0.828394,-3.184288,0.579397,0.0,49.847427,24.03989,409.0,NaN,5.184,22.499998,337.1,15 / 15,112530,2020-03-20 16:36:15:505
14.997279,-10.812215,-9.361329,0.0,49.847427,24.03989,409.0,NaN,5.184,22.499998,337.1,15 / 15,113030,2020-03-20 16:36:16:005
8.781932,-14.767436,-3.701436,0.0,49.847427,24.03989,409.0,NaN,5.184,22.499998,337.1,15 / 15,113531,2020-03-20 16:36:16:506
8.149863,-10.524911,-1.029507,0.0,49.847427,24.03989,409.0,NaN,5.184,22.499998,337.1,15 / 15,114031,2020-03-20 16:36:17:006
6.813898,-4.841076,6.416461,0.0,49.847427,24.03989,409.0,NaN,5.184,22.499998,337.1,15 / 15,114530,2020-03-20 16:36:17:505
-0.229843,-11.975797,-2.375048,0.0,49.847427,24.03989,409.0,NaN,5.184,22.499998,337.1,15 / 15,115030,2020-03-20 16:36:18:005
4.735731,-6.83784,-2.446874,0.0,49.847427,24.03989,409.0,NaN,5.184,22.499998,337.1,15 / 15,115530,2020-03-20 16:36:18:505
11.415554,-9.931149,5.655105,0.0,49.847427,24.03989,409.0,NaN,5.184,22.499998,337.1,15 / 15,116031,2020-03-20 16:36:19:006
3.936068,-7.934384,-4.323928,0.0,49.847427,24.03989,409.0,NaN,5.184,22.499998,337.1,15 / 15,116531,2020-03-20 16:36:19:506
9.696517,-11.477803,-1.120486,0.0,49.847427,24.03989,409.0,NaN,5.184,22.499998,337.1,15 / 15,117030,2020-03-20 16:36:20:005
8.523358,-7.637503,-2.715025,0.0,49.847427,24.03989,409.0,NaN,5.184,22.499998,337.1,15 / 15,117530,2020-03-20 16:36:20:505
6.196194,-10.936713,-4.036624,0.0,49.847427,24.03989,409.0,NaN,5.184,22.499998,337.1,15 / 15,118031,2020-03-20 16:36:21:006
9.452309,-3.471592,-18.224663,0.0,49.847427,24.03989,409.0,NaN,5.184,22.499998,337.1,0 / 0,118530,2020-03-20 16:36:21:505
-1.982399,-12.210428,-1.819593,0.0,49.847427,24.03989,409.0,NaN,5.184,22.499998,337.1,0 / 0,119030,2020-03-20 16:36:22:005
2.523489,-6.129156,0.076614,0.0,49.847427,24.03989,409.0,NaN,5.184,22.499998,337.1,0 / 0,119531,2020-03-20 16:36:22:506
-1.426944,-1.699883,2.72939,0.0,49.847427,24.03989,409.0,NaN,5.184,22.499998,337.1,0 / 0,120030,2020-03-20 16:36:23:005
0.679953,-6.74686,0.062249,0.0,49.847427,24.03989,409.0,NaN,5.184,22.499998,337.1,0 / 4,120530,2020-03-20 16:36:23:505
4.362236,-13.354857,2.58095,0.0,49.847427,24.03989,409.0,NaN,5.184,22.499998,337.1,0 / 4,121031,2020-03-20 16:36:24:006
6.354212,-21.53345,-13.972561,0.0,49.847427,24.03989,409.0,NaN,5.184,22.499998,337.1,0 / 5,121530,2020-03-20 16:36:24:505
0.871489,-3.098097,0.876278,0.0,49.847427,24.03989,409.0,NaN,5.184,22.499998,337.1,0 / 6,122030,2020-03-20 16:36:25:005
5.272033,-6.62715,1.403002,0.0,49.847427,24.03989,409.0,NaN,5.184,22.499998,337.1,0 / 6,122531,2020-03-20 16:36:25:506
-3.572149,-4.094085,1.450886,0.0,49.847427,24.03989,409.0,NaN,5.184,22.499998,337.1,0 / 7,123030,2020-03-20 16:36:26:005
3.174712,-5.0374,1.570596,0.0,49.847427,24.03989,409.0,NaN,5.184,22.499998,337.1,0 / 7,123530,2020-03-20 16:36:26:505
-0.866701,-5.96635,-1.891419,0.0,49.847427,24.03989,409.0,NaN,5.184,22.499998,337.1,0 / 17,124031,2020-03-20 16:36:27:006
4.960786,-8.853758,-10.821792,0.0,49.847427,24.03989,409.0,NaN,5.184,22.499998,337.1,0 / 17,124530,2020-03-20 16:36:27:505
0.488417,-3.677494,2.178724,0.0,49.847427,24.03989,409.0,NaN,5.184,22.499998,337.1,0 / 18,125030,2020-03-20 16:36:28:005
1.326388,-4.735731,1.302446,0.0,49.847427,24.03989,409.0,NaN,5.184,22.499998,337.1,0 / 18,125530,2020-03-20 16:36:28:505
6.833052,-8.508993,-2.121263,0.0,49.847427,24.03989,409.0,NaN,5.184,22.499998,337.1,0 / 18,126031,2020-03-20 16:36:29:006
3.222596,-7.259219,-4.596867,0.0,49.847427,24.03989,409.0,NaN,5.184,22.499998,337.1,0 / 18,126530,2020-03-20 16:36:29:505
2.600103,-25.57965,-1.316811,0.0,49.847164,24.03921,379.0,NaN,5.184,11.0,221.4,16 / 18,127030,2020-03-20 16:36:30:005
4.64954,-9.26556,-7.685387,0.0,49.847164,24.03921,379.0,NaN,5.184,11.0,221.4,16 / 18,127530,2020-03-20 16:36:30:505
5.894525,-3.730166,0.919373,0.0,49.847164,24.03921,379.0,NaN,5.184,11.0,221.4,16 / 18,128030,2020-03-20 16:36:31:005
8.566454,-11.535264,-10.749966,0.0,49.847164,24.03921,379.0,NaN,5.184,11.0,221.4,16 / 18,128530,2020-03-20 16:36:31:505
5.104438,-19.685127,6.6894,0.0,49.847164,24.03921,379.0,NaN,5.184,11.0,221.4,16 / 18,129030,2020-03-20 16:36:32:005
11.975797,-14.733917,-2.96881,0.0,49.847164,24.03921,379.0,NaN,5.184,11.0,221.4,16 / 18,129531,2020-03-20 16:36:32:506
11.166556,-9.634268,-0.100556,0.0,49.847164,24.03921,379.0,NaN,5.184,11.0,221.4,16 / 18,130031,2020-03-20 16:36:33:006
0.277727,-17.568651,3.596091,0.0,49.847164,24.03921,379.0,NaN,5.184,11.0,221.4,16 / 18,130530,2020-03-20 16:36:33:505
12.20564,-16.701952,-14.504074,0.0,49.847164,24.03921,379.0,NaN,5.184,11.0,221.4,16 / 18,131030,2020-03-20 16:36:34:005
7.316681,-14.451402,-1.216254,0.0,49.847164,24.03921,379.0,NaN,5.184,11.0,221.4,16 / 18,131531,2020-03-20 16:36:34:506
10.510546,-8.283937,1.810017,0.0,49.847164,24.03921,379.0,NaN,5.184,11.0,221.4,16 / 18,132031,2020-03-20 16:36:35:006
7.675811,-15.337256,-5.449203,0.0,49.847164,24.03921,379.0,NaN,5.184,11.0,221.4,16 / 18,132530,2020-03-20 16:36:35:505
8.623915,-15.069105,5.688624,0.0,49.847164,24.03921,379.0,NaN,5.184,11.0,221.4,16 / 18,133030,2020-03-20 16:36:36:005
2.06859,-23.659502,-0.507571,0.0,49.847164,24.03921,379.0,NaN,5.184,11.0,221.4,16 / 18,133531,2020-03-20 16:36:36:506
3.122039,-9.68694,-5.889736,0.0,49.847164,24.03921,379.0,NaN,5.184,11.0,221.4,16 / 18,134031,2020-03-20 16:36:37:006
-0.335188,-10.376471,-3.797204,0.0,49.847164,24.03921,379.0,NaN,5.184,11.0,221.4,16 / 18,134530,2020-03-20 16:36:37:505
5.846641,-2.75812,3.447651,0.0,49.847164,24.03921,379.0,NaN,5.184,11.0,221.4,16 / 18,135030,2020-03-20 16:36:38:005
-2.48997,-4.553771,1.043872,0.0,49.847164,24.03921,379.0,NaN,5.184,11.0,221.4,16 / 18,135531,2020-03-20 16:36:38:506
3.356671,-11.190498,-4.031835,0.0,49.847164,24.03921,379.0,NaN,5.184,11.0,221.4,16 / 18,136031,2020-03-20 16:36:39:006
3.663129,-7.52737,-0.387861,0.0,49.847164,24.03921,379.0,NaN,5.184,11.0,221.4,16 / 18,136531,2020-03-20 16:36:39:506
9.169792,-8.51857,-9.23683,0.0,49.847164,24.03921,379.0,NaN,5.184,11.0,221.4,16 / 18,137030,2020-03-20 16:36:40:005
6.909666,-7.139509,-2.245761,0.0,49.847164,24.03921,379.0,NaN,5.184,11.0,221.4,16 / 18,137530,2020-03-20 16:36:40:505
11.099519,-15.231912,0.995988,0.0,49.847164,24.03921,379.0,NaN,5.184,11.0,221.4,16 / 18,138030,2020-03-20 16:36:41:005
3.921703,-5.449203,-0.411803,0.0,49.847164,24.03921,379.0,NaN,5.184,11.0,221.4,16 / 18,138531,2020-03-20 16:36:41:506
6.938397,-6.660669,0.68953,0.0,49.847164,24.03921,379.0,NaN,5.184,11.0,221.4,16 / 18,139030,2020-03-20 16:36:42:005
-1.13964,-3.605668,2.724602,0.0,49.847164,24.03921,379.0,NaN,5.184,11.0,221.4,16 / 18,139530,2020-03-20 16:36:42:505
3.404555,-11.042058,-1.656788,0.0,49.847164,24.03921,379.0,NaN,5.184,11.0,221.4,16 / 18,140030,2020-03-20 16:36:43:005
3.672706,-16.55351,-2.8491,0.0,49.847164,24.03921,379.0,NaN,5.184,11.0,221.4,16 / 18,140531,2020-03-20 16:36:43:506
2.834735,-8.27436,-5.477933,0.0,49.847164,24.03921,379.0,NaN,5.184,11.0,221.4,16 / 18,141031,2020-03-20 16:36:44:006
1.752556,-4.323928,-1.25935,0.0,49.847164,24.03921,379.0,NaN,5.184,11.0,221.4,16 / 18,141530,2020-03-20 16:36:44:505
10.309433,-6.349423,-9.337387,0.0,49.847164,24.03921,379.0,NaN,5.184,11.0,221.4,16 / 18,142030,2020-03-20 16:36:45:005
3.466804,-6.62715,-6.426037,0.0,49.847164,24.03921,379.0,NaN,5.184,11.0,221.4,16 / 18,142531,2020-03-20 16:36:45:506
5.209783,-16.381128,-18.358738,0.0,49.847164,24.03921,379.0,NaN,5.184,11.0,221.4,16 / 18,143030,2020-03-20 16:36:46:005
3.519477,-5.473145,-2.590526,0.0,49.847164,24.03921,379.0,NaN,5.184,11.0,221.4,16 / 18,143531,2020-03-20 16:36:46:506
3.734955,-13.699622,-21.246145,0.0,49.847164,24.03921,379.0,NaN,5.184,11.0,221.4,16 / 18,144031,2020-03-20 16:36:47:006
6.890513,-13.484144,-1.73819,0.0,49.847164,24.03921,379.0,NaN,5.184,11.0,221.4,16 / 18,144530,2020-03-20 16:36:47:505
2.983175,-3.500323,10.132261,8.0,49.847164,24.03921,379.0,NaN,5.184,11.0,221.4,16 / 18,145030,2020-03-20 16:36:48:005
4.989517,2.959233,2.935291,8.0,49.847164,24.03921,379.0,NaN,5.184,11.0,221.4,16 / 18,145530,2020-03-20 16:36:48:505
4.611233,3.069367,7.201759,8.0,49.847164,24.03921,379.0,NaN,5.184,11.0,221.4,16 / 18,146030,2020-03-20 16:36:49:005
3.485958,3.332729,8.920795,8.0,49.847164,24.03921,379.0,NaN,5.184,11.0,221.4,16 / 18,146530,2020-03-20 16:36:49:505
3.60088,3.543419,8.499416,8.0,49.847164,24.03921,379.0,NaN,5.184,11.0,221.4,16 / 18,147030,2020-03-20 16:36:50:005
2.738967,4.458004,7.522582,8.0,49.847164,24.03921,379.0,NaN,5.184,11.0,221.4,16 / 18,147530,2020-03-20 16:36:50:505