ACCELEROMETER X (m/s²),ACCELEROMETER Y (m/s²),ACCELEROMETER Z (m/s²),PROXIMITY (m),LOCATION Latitude : ,LOCATION Longitude : ,LOCATION Altitude ( m),LOCATION Altitude-google ( m),LOCATION Speed ( Kmh),LOCATION Accuracy ( m),LOCATION ORIENTATION (°),Satellites in range,Time since start in ms ,YYYY-MO-DD HH-MI-SS_SSS
6.086061,-2.193089,8.350976,8.0,49.84905,24.034883,372.0,NaN,7.56,2.5,286.8,0 / 5,31,2020-03-20 16:17:50:586
6.574478,-3.32794,3.394978,8.0,49.84905,24.034883,372.0,NaN,7.56,2.5,286.8,0 / 5,532,2020-03-20 16:17:51:087
8.513782,-9.083601,5.094861,8.0,49.84905,24.034883,372.0,NaN,7.56,2.5,286.8,17 / 17,1032,2020-03-20 16:17:51:587
6.617574,-4.903325,1.877054,0.0,49.84905,24.034883,372.0,NaN,7.56,2.5,286.8,17 / 17,1531,2020-03-20 16:17:52:086
6.473922,-6.900089,4.1707,0.0,49.84855,24.035051,357.0,NaN,1.08,11.5,0.0,17 / 20,2032,2020-03-20 16:17:52:587
8.858546,-15.078682,6.751649,0.0,49.84855,24.035051,357.0,NaN,1.08,11.5,0.0,17 / 20,2531,2020-03-20 16:17:53:086
9.437943,-9.193734,-3.572149,0.0,49.84855,24.035051,357.0,NaN,1.08,11.5,0.0,17 / 20,3032,2020-03-20 16:17:53:587
8.30788,-6.392518,-0.976834,0.0,49.84855,24.035051,357.0,NaN,1.08,11.5,0.0,17 / 20,3531,2020-03-20 16:17:54:086
-0.732626,-2.37026,-1.786074,0.0,49.84855,24.035051,357.0,NaN,1.08,11.5,0.0,17 / 20,4031,2020-03-20 16:17:54:586
4.793192,-5.161899,-2.169147,0.0,49.84855,24.035051,357.0,NaN,1.08,11.5,0.0,17 / 20,4532,2020-03-20 16:17:55:087
4.371813,-7.742848,0.775721,0.0,49.84855,24.035051,357.0,NaN,1.08,11.5,0.0,17 / 20,5031,2020-03-20 16:17:55:586
13.062764,-11.511322,-0.474052,0.0,49.84855,24.035051,357.0,NaN,1.08,11.5,0.0,17 / 20,5531,2020-03-20 16:17:56:086
2.695871,-14.638149,-5.674258,0.0,49.84855,24.035051,357.0,NaN,1.08,11.5,0.0,17 / 20,6032,2020-03-20 16:17:56:587
7.369353,-12.617443,-23.616405,0.0,49.84855,24.035051,357.0,NaN,1.08,11.5,0.0,17 / 20,6532,2020-03-20 16:17:57:087
7.508217,-7.613561,-4.175488,0.0,49.84855,24.035051,357.0,NaN,1.08,11.5,0.0,17 / 20,7031,2020-03-20 16:17:57:586
0.158017,-2.260126,2.753332,0.0,49.84855,24.035051,357.0,NaN,1.08,11.5,0.0,17 / 20,7531,2020-03-20 16:17:58:086
3.883395,-6.698976,0.718261,0.0,49.84855,24.035051,357.0,NaN,1.08,11.5,0.0,17 / 20,8032,2020-03-20 16:17:58:587
6.804322,-8.662222,-3.160346,0.0,49.84855,24.035051,357.0,NaN,1.08,11.5,0.0,17 / 20,8532,2020-03-20 16:17:59:087
5.391742,-13.757083,-0.617704,0.0,49.84855,24.035051,357.0,NaN,1.08,11.5,0.0,17 / 20,9031,2020-03-20 16:17:59:586
9.68694,-12.066776,-0.138864,0.0,49.84855,24.035051,357.0,NaN,1.08,11.5,0.0,17 / 20,9531,2020-03-20 16:18:00:086
-1.604115,-1.04866,-7.364564,0.0,49.84855,24.035051,357.0,NaN,1.08,11.5,0.0,17 / 20,10032,2020-03-20 16:18:00:587
3.734955,-6.722918,-0.804452,0.0,49.84855,24.035051,357.0,NaN,1.08,11.5,0.0,17 / 20,10531,2020-03-20 16:18:01:086
2.298434,-7.283161,-1.508347,0.0,49.84855,24.035051,357.0,NaN,1.08,11.5,0.0,17 / 20,11031,2020-03-20 16:18:01:586
6.861782,-4.673482,-1.915361,0.0,49.84855,24.035051,357.0,NaN,1.08,11.5,0.0,17 / 20,11532,2020-03-20 16:18:02:087
6.756438,-8.652645,-1.374272,0.0,49.84855,24.035051,357.0,NaN,1.08,11.5,0.0,17 / 20,12031,2020-03-20 16:18:02:586
2.686294,-7.785944,-2.72939,0.0,49.84855,24.035051,357.0,NaN,1.08,11.5,0.0,17 / 20,12532,2020-03-20 16:18:03:087
8.154651,-11.602302,2.523489,0.0,49.84855,24.035051,357.0,NaN,1.08,11.5,0.0,17 / 20,13032,2020-03-20 16:18:03:587
0.59855,-1.537077,-5.114014,0.0,49.84855,24.035051,357.0,NaN,1.08,11.5,0.0,17 / 20,13531,2020-03-20 16:18:04:086
5.013459,-4.984728,-0.02873,0.0,49.84855,24.035051,357.0,NaN,1.08,11.5,0.0,17 / 20,14031,2020-03-20 16:18:04:586
4.386178,-7.177817,-0.617704,0.0,49.84855,24.035051,357.0,NaN,1.08,11.5,0.0,17 / 20,14532,2020-03-20 16:18:05:087
8.99741,-11.827356,-3.950433,0.0,49.84855,24.035051,357.0,NaN,1.08,11.5,0.0,17 / 20,15031,2020-03-20 16:18:05:586
0.948104,-14.911088,-3.620033,0.0,49.84855,24.035051,357.0,NaN,1.08,11.5,0.0,17 / 20,15531,2020-03-20 16:18:06:086
6.44998,-12.670115,-5.597643,0.0,49.84855,24.035051,357.0,NaN,1.08,11.5,0.0,17 / 20,16032,2020-03-20 16:18:06:587
4.836288,-7.61835,1.058237,0.0,49.84855,24.035051,357.0,NaN,1.08,11.5,0.0,17 / 20,16532,2020-03-20 16:18:07:087
0.229843,-3.040636,0.746991,0.0,49.84855,24.035051,357.0,NaN,1.08,11.5,0.0,17 / 20,17031,2020-03-20 16:18:07:586
3.433285,-9.188946,0.057461,0.0,49.84855,24.035051,357.0,NaN,1.08,11.5,0.0,17 / 20,17531,2020-03-20 16:18:08:086
5.363012,-9.825804,4.635175,0.0,49.84855,24.035051,357.0,NaN,1.08,11.5,0.0,17 / 20,18032,2020-03-20 16:18:08:587
1.886631,-5.439626,-1.149217,0.0,49.84855,24.035051,357.0,NaN,1.08,11.5,0.0,17 / 20,18531,2020-03-20 16:18:09:086
9.873688,-11.305421,-0.181959,0.0,49.84855,24.035051,357.0,NaN,1.08,11.5,0.0,17 / 20,19032,2020-03-20 16:18:09:587
3.610456,0.335188,-3.835511,0.0,49.84855,24.035051,357.0,NaN,1.08,11.5,0.0,17 / 20,19532,2020-03-20 16:18:10:087
9.040505,-7.52737,-3.011906,0.0,49.84855,24.035051,357.0,NaN,1.08,11.5,0.0,17 / 20,20031,2020-03-20 16:18:10:586
3.294422,-3.509899,-1.383848,0.0,49.84855,24.035051,357.0,NaN,1.08,11.5,0.0,17 / 20,20531,2020-03-20 16:18:11:086
4.994305,-6.445191,-0.134075,0.0,49.84855,24.035051,357.0,NaN,1.08,11.5,0.0,17 / 20,21032,2020-03-20 16:18:11:587
3.993528,-13.819332,-4.170699,0.0,49.84855,24.035051,357.0,NaN,1.08,11.5,0.0,17 / 20,21531,2020-03-20 16:18:12:086
-2.738967,-4.941632,-5.841852,0.0,49.84855,24.035051,357.0,NaN,1.08,11.5,0.0,17 / 20,22031,2020-03-20 16:18:12:586
6.703765,-7.809886,-2.035071,0.0,49.84855,24.035051,357.0,NaN,1.08,11.5,0.0,17 / 20,22531,2020-03-20 16:18:13:086
1.781286,-3.53863,-0.588974,0.0,49.84855,24.035051,357.0,NaN,1.08,11.5,0.0,17 / 20,23032,2020-03-20 16:18:13:587
3.77805,-2.528277,-4.290409,0.0,49.84855,24.035051,357.0,NaN,1.08,11.5,0.0,17 / 20,23531,2020-03-20 16:18:14:086
1.043872,-3.816357,0.004788,0.0,49.84855,24.035051,357.0,NaN,1.08,11.5,0.0,17 / 20,24032,2020-03-20 16:18:14:587
1.877054,-6.856993,-1.666364,0.0,49.84855,24.035051,357.0,NaN,1.08,11.5,0.0,17 / 20,24531,2020-03-20 16:18:15:086
6.042965,-11.324574,-1.527501,0.0,49.84855,24.035051,357.0,NaN,1.08,11.5,0.0,17 / 20,25031,2020-03-20 16:18:15:586
1.403002,-4.343082,-21.064186,0.0,49.84855,24.035051,357.0,NaN,1.08,11.5,0.0,17 / 20,25532,2020-03-20 16:18:16:087
6.359,-5.329493,-1.149217,0.0,49.84855,24.035051,357.0,NaN,1.08,11.5,0.0,17 / 20,26032,2020-03-20 16:18:16:587
7.872135,-6.105214,-3.093309,0.0,49.84855,24.035051,357.0,NaN,1.08,11.5,0.0,17 / 20,26531,2020-03-20 16:18:17:086
5.319916,-15.557523,-2.03986,0.0,49.84855,24.035051,357.0,NaN,1.08,11.5,0.0,17 / 20,27031,2020-03-20 16:18:17:586
6.488287,-10.716447,-0.191536,0.0,49.84855,24.035051,357.0,NaN,1.08,11.5,0.0,17 / 20,27532,2020-03-20 16:18:18:087
-0.057461,-3.083732,-2.925714,0.0,49.84855,24.035051,357.0,NaN,1.08,11.5,0.0,17 / 20,28031,2020-03-20 16:18:18:586
6.995857,-9.782708,-1.058237,0.0,49.84855,24.035051,357.0,NaN,1.08,11.5,0.0,17 / 20,28531,2020-03-20 16:18:19:086
0.775721,-5.209783,0.699107,0.0,49.84855,24.035051,357.0,NaN,1.08,11.5,0.0,17 / 20,29032,2020-03-20 16:18:19:587
3.189077,-6.358999,-0.703895,0.0,49.84855,24.035051,357.0,NaN,1.08,11.5,0.0,17 / 20,29531,2020-03-20 16:18:20:086
9.442732,-9.356541,0.201113,0.0,49.84855,24.035051,357.0,NaN,1.08,11.5,0.0,17 / 20,30031,2020-03-20 16:18:20:586
1.067814,-4.362235,-0.90022,0.0,49.84855,24.035051,357.0,NaN,1.08,11.5,0.0,17 / 20,30532,2020-03-20 16:18:21:087
9.979033,-7.498639,-5.947197,0.0,49.84855,24.035051,357.0,NaN,1.08,11.5,0.0,17 / 20,31032,2020-03-20 16:18:21:587
-1.963245,-3.203442,-1.192312,0.0,49.84855,24.035051,357.0,NaN,1.08,11.5,0.0,17 / 20,31531,2020-03-20 16:18:22:086
4.548983,-7.536947,-0.301669,0.0,49.84855,24.035051,357.0,NaN,1.08,11.5,0.0,17 / 20,32031,2020-03-20 16:18:22:586
1.786075,-15.897499,-1.37906,0.0,49.84855,24.035051,357.0,NaN,1.08,11.5,0.0,17 / 20,32532,2020-03-20 16:18:23:087
3.993528,-5.123591,-7.642292,0.0,49.84855,24.035051,357.0,NaN,1.08,11.5,0.0,17 / 20,33031,2020-03-20 16:18:23:586
0.248997,-8.365341,-0.526724,0.0,49.84855,24.035051,357.0,NaN,1.08,11.5,0.0,17 / 20,33531,2020-03-20 16:18:24:086
1.11091,-2.509123,-3.313575,0.0,49.84855,24.035051,357.0,NaN,1.08,11.5,0.0,17 / 20,34032,2020-03-20 16:18:24:587
7.661446,-6.196194,-2.964022,0.0,49.84855,24.035051,357.0,NaN,1.08,11.5,0.0,17 / 20,34532,2020-03-20 16:18:25:087
6.114791,-8.441956,1.043872,0.0,49.84855,24.035051,357.0,NaN,1.08,11.5,0.0,17 / 20,35031,2020-03-20 16:18:25:586
0.052672,-5.57849,-2.135628,0.0,49.84855,24.035051,357.0,NaN,1.08,11.5,0.0,17 / 20,35531,2020-03-20 16:18:26:086
8.753201,-8.896853,-4.984728,0.0,49.84855,24.035051,357.0,NaN,1.08,11.5,0.0,17 / 20,36032,2020-03-20 16:18:26:587
-1.254562,-3.495534,-2.782062,0.0,49.84855,24.035051,357.0,NaN,1.08,11.5,0.0,17 / 20,36531,2020-03-20 16:18:27:086
4.817134,-9.064447,-2.245761,0.0,49.84855,24.035051,357.0,NaN,1.08,11.5,0.0,17 / 20,37031,2020-03-20 16:18:27:586
4.941633,-11.051635,-2.001553,0.0,49.84855,24.035051,357.0,NaN,1.08,11.5,0.0,17 / 20,37532,2020-03-20 16:18:28:087
12.631808,-17.056293,-2.322375,0.0,49.84855,24.035051,357.0,NaN,1.08,11.5,0.0,17 / 20,38032,2020-03-20 16:18:28:587
6.732496,-12.306197,-0.507571,0.0,49.84855,24.035051,357.0,NaN,1.08,11.5,0.0,17 / 20,38531,2020-03-20 16:18:29:086
1.513135,-3.835511,-2.255338,0.0,49.84855,24.035051,357.0,NaN,1.08,11.5,0.0,17 / 20,39031,2020-03-20 16:18:29:586
3.241749,-6.349423,-0.909797,0.0,49.84855,24.035051,357.0,NaN,1.08,11.5,0.0,17 / 20,39531,2020-03-20 16:18:30:086
3.198654,-17.108965,-0.023942,0.0,49.84855,24.035051,357.0,NaN,1.08,11.5,0.0,17 / 20,40032,2020-03-20 16:18:30:587
15.322891,-23.54458,-15.164873,0.0,49.84855,24.035051,357.0,NaN,1.08,11.5,0.0,17 / 20,40531,2020-03-20 16:18:31:086
6.856994,-6.651092,-2.169147,0.0,49.84855,24.035051,357.0,NaN,1.08,11.5,0.0,17 / 20,41031,2020-03-20 16:18:31:586
-0.924162,-3.883395,-1.288081,0.0,49.84855,24.035051,357.0,NaN,1.08,11.5,0.0,17 / 20,41532,2020-03-20 16:18:32:087
1.551443,-7.675811,-0.21069,0.0,49.84855,24.035051,357.0,NaN,1.08,11.5,0.0,17 / 20,42032,2020-03-20 16:18:32:587
2.226608,-7.163451,-1.086968,0.0,49.84855,24.035051,357.0,NaN,1.08,11.5,0.0,17 / 20,42531,2020-03-20 16:18:33:086
11.085154,-16.429012,-1.532289,0.0,49.84855,24.035051,357.0,NaN,1.08,11.5,0.0,17 / 20,43031,2020-03-20 16:18:33:586
8.121132,-12.119449,-0.435745,0.0,49.84855,24.035051,357.0,NaN,1.08,11.5,0.0,17 / 20,43532,2020-03-20 16:18:34:087
-0.732626,-1.374272,-3.845088,0.0,49.84855,24.035051,357.0,NaN,1.08,11.5,0.0,17 / 20,44032,2020-03-20 16:18:34:587
6.363788,-6.287173,1.197101,0.0,49.84855,24.035051,357.0,NaN,1.08,11.5,0.0,17 / 20,44531,2020-03-20 16:18:35:086
6.253655,-7.920019,-2.715025,0.0,49.84855,24.035051,357.0,NaN,1.08,11.5,0.0,17 / 20,45031,2020-03-20 16:18:35:586
3.203442,-13.254301,-0.153229,0.0,49.84855,24.035051,357.0,NaN,1.08,11.5,0.0,17 / 20,45532,2020-03-20 16:18:36:087
5.142745,-11.439496,-1.369483,0.0,49.84855,24.035051,357.0,NaN,1.08,11.5,0.0,17 / 20,46031,2020-03-20 16:18:36:586
8.863335,-19.761742,-5.736507,0.0,49.84855,24.035051,357.0,NaN,1.08,11.5,0.0,17 / 20,46531,2020-03-20 16:18:37:086
8.695741,-10.817003,-4.620809,0.0,49.84855,24.035051,357.0,NaN,1.08,11.5,0.0,17 / 20,47032,2020-03-20 16:18:37:587
1.575385,-3.284845,-1.268927,0.0,49.84855,24.035051,357.0,NaN,1.08,11.5,0.0,17 / 20,47532,2020-03-20 16:18:38:087
3.936068,-6.904877,-1.374272,0.0,49.84855,24.035051,357.0,NaN,1.08,11.5,0.0,17 / 20,48031,2020-03-20 16:18:38:586
7.819463,-11.310209,-3.543418,0.0,49.84855,24.035051,357.0,NaN,1.08,11.5,0.0,17 / 20,48531,2020-03-20 16:18:39:086
0.454898,-3.701436,-8.595184,0.0,49.84855,24.035051,357.0,NaN,1.08,11.5,0.0,17 / 20,49032,2020-03-20 16:18:39:587
4.299987,-6.976703,-0.201113,0.0,49.84855,24.035051,357.0,NaN,1.08,11.5,0.0,17 / 20,49531,2020-03-20 16:18:40:086
4.027047,-2.906561,-4.745308,0.0,49.84855,24.035051,357.0,NaN,1.08,11.5,0.0,17 / 20,50032,2020-03-20 16:18:40:587
2.557007,-5.63595,-1.149217,0.0,49.84855,24.035051,357.0,NaN,1.08,11.5,0.0,17 / 20,50532,2020-03-20 16:18:41:087
7.805098,-7.661445,-8.485051,0.0,49.84855,24.035051,357.0,NaN,1.08,11.5,0.0,17 / 20,51031,2020-03-20 16:18:41:586
0.474052,0.9912,1.426944,0.0,49.84855,24.035051,357.0,NaN,1.08,11.5,0.0,17 / 20,51531,2020-03-20 16:18:42:086
5.396531,-10.079589,0.866701,0.0,49.84855,24.035051,357.0,NaN,1.08,11.5,0.0,17 / 20,52032,2020-03-20 16:18:42:587
-1.177947,-2.82037,-2.106897,0.0,49.84855,24.035051,357.0,NaN,1.08,11.5,0.0,17 / 20,52531,2020-03-20 16:18:43:086
1.197101,-8.054094,-1.211466,0.0,49.84855,24.035051,357.0,NaN,1.08,11.5,0.0,17 / 20,53031,2020-03-20 16:18:43:586
5.133168,-10.606314,2.906561,0.0,49.84855,24.035051,357.0,NaN,1.08,11.5,0.0,17 / 20,53532,2020-03-20 16:18:44:087
2.63841,-8.60955,-2.111686,0.0,49.84855,24.035051,357.0,NaN,1.08,11.5,0.0,17 / 20,54032,2020-03-20 16:18:44:587
6.114791,-11.128249,0.105345,0.0,49.84855,24.035051,357.0,NaN,1.08,11.5,0.0,17 / 20,54531,2020-03-20 16:18:45:086
0.038307,-3.969586,-1.292869,0.0,49.84855,24.035051,357.0,NaN,1.08,11.5,0.0,17 / 20,55032,2020-03-20 16:18:45:587
8.983045,-9.208099,0.785298,0.0,49.84855,24.035051,357.0,NaN,1.08,11.5,0.0,17 / 20,55532,2020-03-20 16:18:46:087
-0.78051,-2.753332,-2.059013,0.0,49.84855,24.035051,357.0,NaN,1.08,11.5,0.0,17 / 20,56031,2020-03-20 16:18:46:586
4.587291,-5.57849,-3.519476,0.0,49.84855,24.035051,357.0,NaN,1.08,11.5,0.0,17 / 20,56531,2020-03-20 16:18:47:086
6.579266,-10.553641,-4.625597,0.0,49.84855,24.035051,357.0,NaN,1.08,11.5,0.0,17 / 20,57032,2020-03-20 16:18:47:587
11.616667,-13.79539,-2.054225,0.0,49.84855,24.035051,357.0,NaN,1.08,11.5,0.0,17 / 20,57531,2020-03-20 16:18:48:086
7.733272,-12.229582,-1.747767,0.0,49.84855,24.035051,357.0,NaN,1.08,11.5,0.0,17 / 20,58031,2020-03-20 16:18:48:586
4.548983,-4.012682,-10.58716,0.0,49.84855,24.035051,357.0,NaN,1.08,11.5,0.0,17 / 20,58532,2020-03-20 16:18:49:087
5.688624,-6.186617,-0.282516,0.0,49.84855,24.035051,357.0,NaN,1.08,11.5,0.0,17 / 20,59032,2020-03-20 16:18:49:587
7.800309,-8.408437,0.713472,0.0,49.84855,24.035051,357.0,NaN,1.08,11.5,0.0,17 / 20,59531,2020-03-20 16:18:50:086
-0.790087,-5.013458,-1.532289,0.0,49.84855,24.035051,357.0,NaN,1.08,11.5,0.0,17 / 20,60032,2020-03-20 16:18:50:587
8.896853,-14.317327,-1.120486,0.0,49.84855,24.035051,357.0,NaN,1.08,11.5,0.0,17 / 20,60531,2020-03-20 16:18:51:086
0.062249,-2.8491,-6.852205,0.0,49.84855,24.035051,357.0,NaN,1.08,11.5,0.0,17 / 20,61031,2020-03-20 16:18:51:586
-0.124498,-8.681376,1.082179,0.0,49.84855,24.035051,357.0,NaN,1.08,11.5,0.0,17 / 20,61532,2020-03-20 16:18:52:087
3.284845,-1.991976,-1.685518,0.0,49.84855,24.035051,357.0,NaN,1.08,11.5,0.0,17 / 20,62032,2020-03-20 16:18:52:587
4.046201,-4.836287,-1.13964,0.0,49.84855,24.035051,357.0,NaN,1.08,11.5,0.0,17 / 20,62531,2020-03-20 16:18:53:086
1.264139,-14.417883,-5.736507,0.0,49.84855,24.035051,357.0,NaN,1.08,11.5,0.0,17 / 20,63031,2020-03-20 16:18:53:586
-3.74932,-4.850652,-6.521805,0.0,49.84855,24.035051,357.0,NaN,1.08,11.5,0.0,17 / 20,63532,2020-03-20 16:18:54:087
4.654328,-7.522581,-1.37906,0.0,49.84855,24.035051,357.0,NaN,1.08,11.5,0.0,17 / 20,64031,2020-03-20 16:18:54:586
1.786075,-1.786074,1.383849,0.0,49.84855,24.035051,357.0,NaN,1.08,11.5,0.0,17 / 20,64532,2020-03-20 16:18:55:087
5.200207,-12.808979,-3.452439,0.0,49.84855,24.035051,357.0,NaN,1.08,11.5,0.0,17 / 20,65032,2020-03-20 16:18:55:587
5.420473,-10.414778,-1.762132,0.0,49.84855,24.035051,357.0,NaN,1.08,11.5,0.0,17 / 20,65531,2020-03-20 16:18:56:086
0.565032,-1.747767,-9.394848,0.0,49.84855,24.035051,357.0,NaN,1.08,11.5,0.0,17 / 20,66031,2020-03-20 16:18:56:586
4.611233,-7.603985,-0.818817,0.0,49.84855,24.035051,357.0,NaN,1.08,11.5,0.0,17 / 20,66532,2020-03-20 16:18:57:087
3.145981,-6.938396,0.071826,0.0,49.84855,24.035051,357.0,NaN,1.08,11.5,0.0,17 / 20,67032,2020-03-20 16:18:57:587
6.90009,-7.043741,-1.446098,0.0,49.84855,24.035051,357.0,NaN,1.08,11.5,0.0,17 / 20,67531,2020-03-20 16:18:58:086
0.766145,-15.638926,-4.328717,0.0,49.84855,24.035051,357.0,NaN,1.08,11.5,0.0,17 / 20,68032,2020-03-20 16:18:58:587
4.941633,-7.704541,-9.476251,0.0,49.84855,24.035051,357.0,NaN,1.08,11.5,0.0,17 / 20,68532,2020-03-20 16:18:59:087
4.122815,-7.211335,-3.423708,0.0,49.84855,24.035051,357.0,NaN,1.08,11.5,0.0,17 / 20,69031,2020-03-20 16:18:59:586
1.56102,-1.029507,0.316035,0.0,49.84855,24.035051,357.0,NaN,1.08,11.5,0.0,17 / 20,69532,2020-03-20 16:19:00:087
5.88016,-6.426037,-2.193089,0.0,49.84855,24.035051,357.0,NaN,1.08,11.5,0.0,17 / 20,70031,2020-03-20 16:19:00:586
-1.460463,-3.62961,-2.245761,0.0,49.84855,24.035051,357.0,NaN,1.08,11.5,0.0,17 / 20,70531,2020-03-20 16:19:01:086
3.663129,-7.963114,-2.015918,0.0,49.84855,24.035051,357.0,NaN,1.08,11.5,0.0,0 / 0,71032,2020-03-20 16:19:01:587
4.774039,-9.495404,-2.135628,0.0,49.84855,24.035051,357.0,NaN,1.08,11.5,0.0,0 / 0,71531,2020-03-20 16:19:02:086
0.981623,-4.31914,-2.173935,0.0,49.84855,24.035051,357.0,NaN,1.08,11.5,0.0,0 / 1,72031,2020-03-20 16:19:02:586
7.211336,-7.082048,1.268927,0.0,49.84855,24.035051,357.0,NaN,1.08,11.5,0.0,0 / 1,72531,2020-03-20 16:19:03:086
6.947974,-8.106766,-2.60968,0.0,49.84855,24.035051,357.0,NaN,1.08,11.5,0.0,0 / 4,73032,2020-03-20 16:19:03:587
9.217676,-10.275913,-1.393425,0.0,49.84855,24.035051,357.0,NaN,1.08,11.5,0.0,0 / 4,73532,2020-03-20 16:19:04:087
3.131616,-16.725893,-2.691083,0.0,49.847965,24.03544,365.0,NaN,0.72,22.0,0.0,8 / 8,74031,2020-03-20 16:19:04:586
0.272939,-4.817134,-5.310339,0.0,49.847965,24.03544,365.0,NaN,0.72,22.0,0.0,8 / 8,74532,2020-03-20 16:19:05:087
5.932832,-10.16578,-0.737414,0.0,49.847965,24.03544,365.0,NaN,0.72,22.0,0.0,8 / 8,75031,2020-03-20 16:19:05:586
0.770933,-3.821146,-3.055001,0.0,49.847965,24.03544,365.0,NaN,0.72,22.0,0.0,8 / 8,75531,2020-03-20 16:19:06:086
4.74052,-5.39653,-1.853112,0.0,49.847965,24.03544,365.0,NaN,0.72,22.0,0.0,8 / 8,76032,2020-03-20 16:19:06:587
4.721366,-11.070788,-2.825158,0.0,49.847965,24.03544,365.0,NaN,0.72,22.0,0.0,8 / 8,76531,2020-03-20 16:19:07:086
1.244985,-6.124367,-0.584185,0.0,49.847965,24.03544,365.0,NaN,0.72,22.0,0.0,8 / 8,77031,2020-03-20 16:19:07:586
7.297527,-11.942278,0.440533,0.0,49.847965,24.03544,365.0,NaN,0.72,22.0,0.0,8 / 8,77532,2020-03-20 16:19:08:087
-1.130063,-4.577713,-1.163582,0.0,49.847965,24.03544,365.0,NaN,0.72,22.0,0.0,8 / 8,78031,2020-03-20 16:19:08:586
1.335965,-9.131485,1.268927,0.0,49.847965,24.03544,365.0,NaN,0.72,22.0,0.0,8 / 8,78531,2020-03-20 16:19:09:086
0.158017,-6.335057,-1.16837,0.0,49.847965,24.03544,365.0,NaN,0.72,22.0,0.0,8 / 8,79032,2020-03-20 16:19:09:587
2.772486,-7.551312,-1.067814,0.0,49.847965,24.03544,365.0,NaN,0.72,22.0,0.0,8 / 8,79531,2020-03-20 16:19:10:086
1.422156,-14.18325,-2.791639,0.0,49.847965,24.03544,365.0,NaN,0.72,22.0,0.0,8 / 8,80031,2020-03-20 16:19:10:586
5.281609,-13.603854,-16.500837,0.0,49.847965,24.03544,365.0,NaN,0.72,22.0,0.0,8 / 8,80532,2020-03-20 16:19:11:087
5.023035,-9.92636,-1.575385,0.0,49.847965,24.03544,365.0,NaN,0.72,22.0,0.0,8 / 8,81031,2020-03-20 16:19:11:586
1.73819,-1.661576,-1.144428,0.0,49.847965,24.03544,365.0,NaN,0.72,22.0,0.0,8 / 8,81531,2020-03-20 16:19:12:086
3.380613,-8.619126,-0.938527,0.0,49.847965,24.03544,365.0,NaN,0.72,22.0,0.0,8 / 8,82032,2020-03-20 16:19:12:587
2.375048,-7.972691,-1.364695,0.0,49.847965,24.03544,365.0,NaN,0.72,22.0,0.0,8 / 8,82531,2020-03-20 16:19:13:086
5.837064,-7.5561,-0.134075,0.0,49.847965,24.03544,365.0,NaN,0.72,22.0,0.0,8 / 8,83031,2020-03-20 16:19:13:586
6.856994,-11.956643,-0.47884,0.0,49.847965,24.03544,365.0,NaN,0.72,22.0,0.0,8 / 8,83532,2020-03-20 16:19:14:087
9.179369,-19.632454,-19.412188,0.0,49.847965,24.03544,365.0,NaN,0.72,22.0,0.0,8 / 8,84031,2020-03-20 16:19:14:586
10.036493,-10.860099,-7.85777,0.0,49.847965,24.03544,365.0,NaN,0.72,22.0,0.0,8 / 8,84532,2020-03-20 16:19:15:087
0.608127,-2.217031,-1.187524,0.0,49.847965,24.03544,365.0,NaN,0.72,22.0,0.0,8 / 8,85031,2020-03-20 16:19:15:586
7.053318,-9.351752,-0.905008,0.0,49.847965,24.03544,365.0,NaN,0.72,22.0,0.0,8 / 8,85531,2020-03-20 16:19:16:086
5.597644,-13.857639,-2.767697,0.0,49.847965,24.03544,365.0,NaN,0.72,22.0,0.0,8 / 8,86032,2020-03-20 16:19:16:587
28.797459,-34.352005,7.058107,0.0,49.847965,24.03544,365.0,NaN,0.72,22.0,0.0,8 / 8,86531,2020-03-20 16:19:17:086
10.936713,-6.435614,-4.730942,0.0,49.847965,24.03544,365.0,NaN,0.72,22.0,0.0,8 / 8,87032,2020-03-20 16:19:17:587
-2.710236,-1.742979,-0.756568,0.0,49.847965,24.03544,365.0,NaN,0.72,22.0,0.0,8 / 8,87531,2020-03-20 16:19:18:086
6.248867,-8.78672,-1.608903,0.0,49.847965,24.03544,365.0,NaN,0.72,22.0,0.0,8 / 8,88031,2020-03-20 16:19:18:586
4.663905,-21.68189,2.873042,0.0,49.847965,24.03544,365.0,NaN,0.72,22.0,0.0,8 / 8,88531,2020-03-20 16:19:19:086
4.941633,-9.461885,-11.602302,0.0,49.847965,24.03544,365.0,NaN,0.72,22.0,0.0,8 / 8,89031,2020-03-20 16:19:19:586
4.793192,-6.631939,-0.344765,0.0,49.847965,24.03544,365.0,NaN,0.72,22.0,0.0,8 / 8,89532,2020-03-20 16:19:20:087
0.90022,-5.688623,0.196325,0.0,49.847965,24.03544,365.0,NaN,0.72,22.0,0.0,8 / 8,90031,2020-03-20 16:19:20:586
7.067683,-6.186617,3.797204,0.0,49.847965,24.03544,365.0,NaN,0.72,22.0,0.0,8 / 8,90532,2020-03-20 16:19:21:087
4.850653,-7.637503,-0.90022,0.0,49.847965,24.03544,365.0,NaN,0.72,22.0,0.0,8 / 8,91031,2020-03-20 16:19:21:586
5.655105,-12.981361,-0.234632,0.0,49.847965,24.03544,365.0,NaN,0.72,22.0,0.0,8 / 8,91531,2020-03-20 16:19:22:086
6.909666,-15.749059,-0.014365,0.0,49.847965,24.03544,365.0,NaN,0.72,22.0,0.0,8 / 8,92032,2020-03-20 16:19:22:587
-0.54109,-7.522581,-7.671022,0.0,49.847965,24.03544,365.0,NaN,0.72,22.0,0.0,8 / 8,92531,2020-03-20 16:19:23:086
4.917691,-7.369353,-2.920926,0.0,49.847965,24.03544,365.0,NaN,0.72,22.0,0.0,8 / 8,93032,2020-03-20 16:19:23:587
-0.110133,-2.920926,1.034295,0.0,49.847965,24.03544,365.0,NaN,0.72,22.0,0.0,8 / 8,93531,2020-03-20 16:19:24:086
2.346318,-8.303091,-2.600103,0.0,49.847965,24.03544,365.0,NaN,0.72,22.0,0.0,8 / 8,94031,2020-03-20 16:19:24:586
4.845865,-4.180276,-0.679953,0.0,49.847965,24.03544,365.0,NaN,0.72,22.0,0.0,8 / 8,94532,2020-03-20 16:19:25:087
4.620809,-5.602432,-0.957681,0.0,49.847965,24.03544,365.0,NaN,0.72,22.0,0.0,8 / 8,95031,2020-03-20 16:19:25:586
4.323929,-13.891158,2.293645,0.0,49.847965,24.03544,365.0,NaN,0.72,22.0,0.0,8 / 8,95532,2020-03-20 16:19:26:087
10.783484,-30.722397,-9.533711,0.0,49.847965,24.03544,365.0,NaN,0.72,22.0,0.0,8 / 8,96031,2020-03-20 16:19:26:586
8.173805,-9.375694,-2.571372,0.0,49.847965,24.03544,365.0,NaN,0.72,22.0,0.0,8 / 8,96531,2020-03-20 16:19:27:086
0.42138,-2.595315,-2.513912,0.0,49.847965,24.03544,365.0,NaN,0.72,22.0,0.0,8 / 8,97032,2020-03-20 16:19:27:587
4.903325,-6.282385,0.6608,0.0,49.847965,24.03544,365.0,NaN,0.72,22.0,0.0,8 / 8,97532,2020-03-20 16:19:28:087
3.165135,-16.19438,-2.437297,0.0,49.847965,24.03544,365.0,NaN,0.72,22.0,0.0,8 / 8,98031,2020-03-20 16:19:28:586
-0.023942,-5.961562,-1.843535,0.0,49.847965,24.03544,365.0,NaN,0.72,22.0,0.0,8 / 8,98531,2020-03-20 16:19:29:086
-0.268151,-14.15452,-4.213795,0.0,49.847965,24.03544,365.0,NaN,0.72,22.0,0.0,8 / 8,99032,2020-03-20 16:19:29:587
4.007894,-12.919112,-12.923901,0.0,49.847965,24.03544,365.0,NaN,0.72,22.0,0.0,8 / 8,99531,2020-03-20 16:19:30:086
7.881712,-9.691729,-4.079719,0.0,49.847965,24.03544,365.0,NaN,0.72,22.0,0.0,8 / 8,100032,2020-03-20 16:19:30:587
2.715025,-3.308787,0.229843,0.0,49.847965,24.03544,365.0,NaN,0.72,22.0,0.0,8 / 8,100532,2020-03-20 16:19:31:087
5.204995,-7.541735,-1.043872,0.0,49.847965,24.03544,365.0,NaN,0.72,22.0,0.0,8 / 8,101031,2020-03-20 16:19:31:586
4.050989,-12.440272,-0.114922,0.0,49.847965,24.03544,365.0,NaN,0.72,22.0,0.0,8 / 8,101531,2020-03-20 16:19:32:086
-0.134075,-4.481945,-3.476381,0.0,49.847965,24.03544,365.0,NaN,0.72,22.0,0.0,8 / 8,102032,2020-03-20 16:19:32:587
6.440403,-7.058106,-0.258574,0.0,49.847965,24.03544,365.0,NaN,0.72,22.0,0.0,8 / 8,102531,2020-03-20 16:19:33:086
10.34774,-12.559982,-2.293645,0.0,49.847965,24.03544,365.0,NaN,0.72,22.0,0.0,8 / 8,103031,2020-03-20 16:19:33:586
-1.426944,-4.3766,-1.915361,0.0,49.847965,24.03544,365.0,NaN,0.72,22.0,0.0,8 / 8,103532,2020-03-20 16:19:34:087
5.899313,-9.615114,-3.634398,0.0,49.847965,24.03544,365.0,NaN,0.72,22.0,0.0,8 / 8,104032,2020-03-20 16:19:34:587
1.503559,-2.437297,-1.436521,0.0,49.847965,24.03544,365.0,NaN,0.72,22.0,0.0,8 / 8,104531,2020-03-20 16:19:35:086
3.677494,-8.054094,-2.710236,0.0,49.847965,24.03544,365.0,NaN,0.72,22.0,0.0,8 / 8,105031,2020-03-20 16:19:35:586
7.97748,-12.646173,1.096544,0.0,49.847965,24.03544,365.0,NaN,0.72,22.0,0.0,8 / 8,105532,2020-03-20 16:19:36:087
-1.374272,-0.852336,-0.56982,0.0,49.847965,24.03544,365.0,NaN,0.72,22.0,0.0,8 / 8,106031,2020-03-20 16:19:36:586
6.138734,-12.665327,-1.446098,0.0,49.847965,24.03544,365.0,NaN,0.72,22.0,0.0,8 / 8,106532,2020-03-20 16:19:37:087
10.726024,-26.623524,-6.421249,0.0,49.847965,24.03544,365.0,NaN,0.72,22.0,0.0,8 / 8,107032,2020-03-20 16:19:37:587
8.456321,-8.882488,-0.852336,0.0,49.847965,24.03544,365.0,NaN,0.72,22.0,0.0,8 / 8,107531,2020-03-20 16:19:38:086
-1.326388,-3.936067,-0.033519,0.0,49.847965,24.03544,365.0,NaN,0.72,22.0,0.0,8 / 8,108031,2020-03-20 16:19:38:586
2.547431,-9.792285,-2.48997,0.0,49.847965,24.03544,365.0,NaN,0.72,22.0,0.0,8 / 8,108532,2020-03-20 16:19:39:087
6.181829,-10.328587,-1.838747,0.0,49.847965,24.03544,365.0,NaN,0.72,22.0,0.0,8 / 8,109032,2020-03-20 16:19:39:587
-2.978387,-2.30801,0.402226,0.0,49.847965,24.03544,365.0,NaN,0.72,22.0,0.0,8 / 8,109531,2020-03-20 16:19:40:086
3.711013,-8.710106,-3.021482,0.0,49.847965,24.03544,365.0,NaN,0.72,22.0,0.0,8 / 8,110031,2020-03-20 16:19:40:586
1.843535,-3.979163,-0.919373,0.0,49.847965,24.03544,365.0,NaN,0.72,22.0,0.0,8 / 8,110532,2020-03-20 16:19:41:087
2.762909,-8.920795,-2.695871,0.0,49.847965,24.03544,365.0,NaN,0.72,22.0,0.0,8 / 8,111031,2020-03-20 16:19:41:586
0.943315,-14.274231,-5.616797,0.0,49.847965,24.03544,365.0,NaN,0.72,22.0,0.0,8 / 8,111531,2020-03-20 16:19:42:086
0.205901,-1.805228,-7.599196,0.0,49.847965,24.03544,365.0,NaN,0.72,22.0,0.0,8 / 8,112032,2020-03-20 16:19:42:587
2.001553,-9.016563,-1.637634,0.0,49.847965,24.03544,365.0,NaN,0.72,22.0,0.0,8 / 8,112531,2020-03-20 16:19:43:086
3.955221,-8.322244,-1.915361,0.0,49.847965,24.03544,365.0,NaN,0.72,22.0,0.0,8 / 8,113032,2020-03-20 16:19:43:587
3.77805,-8.15465,-1.68073,0.0,49.847965,24.03544,365.0,NaN,0.72,22.0,0.0,8 / 8,113531,2020-03-20 16:19:44:086
1.56102,-17.017986,-4.386177,0.0,49.847965,24.03544,365.0,NaN,0.72,22.0,0.0,8 / 8,114031,2020-03-20 16:19:44:586
4.400543,-2.183512,6.378154,0.0,49.847965,24.03544,365.0,NaN,0.72,22.0,0.0,8 / 8,114532,2020-03-20 16:19:45:087
4.927267,-7.637503,0.124498,0.0,49.847965,24.03544,365.0,NaN,0.72,22.0,0.0,8 / 8,115032,2020-03-20 16:19:45:587
2.341529,-4.879383,0.426168,0.0,49.847965,24.03544,365.0,NaN,0.72,22.0,0.0,8 / 8,115531,2020-03-20 16:19:46:086
5.363012,-9.950302,-0.612916,0.0,49.847965,24.03544,365.0,NaN,0.72,22.0,0.0,8 / 8,116032,2020-03-20 16:19:46:587
8.049306,-11.142614,-0.6608,0.0,49.847965,24.03544,365.0,NaN,0.72,22.0,0.0,8 / 8,116532,2020-03-20 16:19:47:087
7.149087,-11.540052,-8.48984,0.0,49.847965,24.03544,365.0,NaN,0.72,22.0,0.0,8 / 8,117031,2020-03-20 16:19:47:586
8.054095,-9.457097,-1.503559,0.0,49.847965,24.03544,365.0,NaN,0.72,22.0,0.0,8 / 8,117532,2020-03-20 16:19:48:087
-0.550666,-3.840299,-0.440533,0.0,49.847965,24.03544,365.0,NaN,0.72,22.0,0.0,8 / 8,118032,2020-03-20 16:19:48:587
0.560243,-8.264784,0.392649,0.0,49.847965,24.03544,365.0,NaN,0.72,22.0,0.0,8 / 8,118531,2020-03-20 16:19:49:086
0.6608,-2.75812,1.996764,0.0,49.847965,24.03544,365.0,NaN,0.72,22.0,0.0,8 / 8,119032,2020-03-20 16:19:49:587
4.443639,-7.939172,-0.665588,0.0,49.847965,24.03544,365.0,NaN,0.72,22.0,0.0,8 / 8,119532,2020-03-20 16:19:50:087
10.769119,-11.822568,3.275268,0.0,49.847965,24.03544,365.0,NaN,0.72,22.0,0.0,8 / 8,120031,2020-03-20 16:19:50:586
-12.47858,-1.417367,-14.757859,0.0,49.847965,24.03544,365.0,NaN,0.72,22.0,0.0,8 / 8,120532,2020-03-20 16:19:51:087
3.303998,-7.120356,0.402226,0.0,49.847965,24.03544,365.0,NaN,0.72,22.0,0.0,8 / 8,121031,2020-03-20 16:19:51:586
3.15077,-7.053318,-1.067814,0.0,49.847965,24.03544,365.0,NaN,0.72,22.0,0.0,8 / 8,121532,2020-03-20 16:19:52:087
26.077644,-35.975273,-1.833958,0.0,49.847965,24.03544,365.0,NaN,0.72,22.0,0.0,8 / 8,122031,2020-03-20 16:19:52:586
2.049437,-20.494366,0.454898,0.0,49.847965,24.03544,365.0,NaN,0.72,22.0,0.0,8 / 8,122532,2020-03-20 16:19:53:087
5.975928,-8.408437,-6.584054,0.0,49.847965,24.03544,365.0,NaN,0.72,22.0,0.0,8 / 8,123031,2020-03-20 16:19:53:586
3.581726,-7.891289,2.154782,0.0,49.847965,24.03544,365.0,NaN,0.72,22.0,0.0,8 / 8,123531,2020-03-20 16:19:54:086
0.588974,-3.600879,0.086191,0.0,49.847965,24.03544,365.0,NaN,0.72,22.0,0.0,8 / 8,124031,2020-03-20 16:19:54:586
6.363788,-24.679432,8.810662,0.0,49.847965,24.03544,365.0,NaN,0.72,22.0,0.0,8 / 8,124531,2020-03-20 16:19:55:086
0.679953,-15.854403,-5.861006,0.0,49.847965,24.03544,365.0,NaN,0.72,22.0,0.0,8 / 8,125032,2020-03-20 16:19:55:587
4.189853,-7.048529,-9.89763,0.0,49.847965,24.03544,365.0,NaN,0.72,22.0,0.0,8 / 8,125532,2020-03-20 16:19:56:087
6.469133,-6.593631,-3.801992,0.0,49.847965,24.03544,365.0,NaN,0.72,22.0,0.0,8 / 8,126031,2020-03-20 16:19:56:586
-2.303222,-2.461239,1.642422,0.0,49.847965,24.03544,365.0,NaN,0.72,22.0,0.0,8 / 8,126531,2020-03-20 16:19:57:086
8.523358,-8.882488,-4.577713,0.0,49.847965,24.03544,365.0,NaN,0.72,22.0,0.0,8 / 8,127032,2020-03-20 16:19:57:587
-2.691083,-4.103661,-0.713472,0.0,49.847965,24.03544,365.0,NaN,0.72,22.0,0.0,8 / 8,127532,2020-03-20 16:19:58:087
2.973599,-5.875371,-1.077391,0.0,49.847965,24.03544,365.0,NaN,0.72,22.0,0.0,8 / 8,128031,2020-03-20 16:19:58:586
9.074024,-14.135366,-1.896208,0.0,49.847965,24.03544,365.0,NaN,0.72,22.0,0.0,8 / 8,128531,2020-03-20 16:19:59:086
-4.91769,5.592855,1.125275,0.0,49.847965,24.03544,365.0,NaN,0.72,22.0,0.0,8 / 8,129032,2020-03-20 16:19:59:587
5.090073,-10.228029,-2.097321,0.0,49.847965,24.03544,365.0,NaN,0.72,22.0,0.0,8 / 8,129531,2020-03-20 16:20:00:086
0.440533,-1.68073,-3.145981,0.0,49.847965,24.03544,365.0,NaN,0.72,22.0,0.0,8 / 8,130032,2020-03-20 16:20:00:587
9.323022,-9.921572,-0.134075,0.0,49.847965,24.03544,365.0,NaN,0.72,22.0,0.0,8 / 8,130532,2020-03-20 16:20:01:087
-0.588974,-3.68707,0.378284,0.0,49.847965,24.03544,365.0,NaN,0.72,22.0,0.0,8 / 8,131031,2020-03-20 16:20:01:586
4.639963,-8.269572,-1.106121,0.0,49.847965,24.03544,365.0,NaN,0.72,22.0,0.0,8 / 8,131531,2020-03-20 16:20:02:086
1.192313,-18.626888,2.360683,0.0,49.847965,24.03544,365.0,NaN,0.72,22.0,0.0,0 / 0,132032,2020-03-20 16:20:02:587
2.542642,-5.319916,3.53863,0.0,49.847965,24.03544,365.0,NaN,0.72,22.0,0.0,0 / 0,132531,2020-03-20 16:20:03:086
5.81791,-18.061857,1.642422,0.0,49.847965,24.03544,365.0,NaN,0.72,22.0,0.0,0 / 1,133031,2020-03-20 16:20:03:586
-0.177171,-6.325481,-5.942408,0.0,49.847965,24.03544,365.0,NaN,0.72,22.0,0.0,0 / 1,133532,2020-03-20 16:20:04:087
9.964667,-8.341399,-1.8579,0.0,49.847965,24.03544,365.0,NaN,0.72,22.0,0.0,0 / 3,134031,2020-03-20 16:20:04:586
-1.015141,1.173159,-3.351882,0.0,49.847965,24.03544,365.0,NaN,0.72,22.0,0.0,0 / 3,134532,2020-03-20 16:20:05:087
10.907983,-15.820885,-0.311246,0.0,49.847965,24.03544,365.0,NaN,0.72,22.0,0.0,0 / 5,135031,2020-03-20 16:20:05:586
2.178724,-5.865794,-6.052541,0.0,49.847965,24.03544,365.0,NaN,0.72,22.0,0.0,11 / 11,135531,2020-03-20 16:20:06:086
9.840169,-8.8777,-5.204994,0.0,49.847965,24.03544,365.0,NaN,0.72,22.0,0.0,11 / 11,136031,2020-03-20 16:20:06:586
-0.584185,-2.116474,0.253785,0.0,49.847965,24.03544,365.0,NaN,0.72,22.0,0.0,11 / 11,136532,2020-03-20 16:20:07:087
4.347871,-7.972691,-2.121263,0.0,49.847965,24.03544,365.0,NaN,0.72,22.0,0.0,11 / 11,137031,2020-03-20 16:20:07:586
5.501876,-13.048399,1.742979,0.0,49.847965,24.03544,365.0,NaN,0.72,22.0,0.0,11 / 11,137531,2020-03-20 16:20:08:086
-6.880935,2.432509,-2.384625,0.0,49.847965,24.03544,365.0,NaN,0.72,22.0,0.0,11 / 11,138031,2020-03-20 16:20:08:586
7.963115,-12.26789,0.42138,0.0,49.847965,24.03544,365.0,NaN,0.72,22.0,0.0,11 / 11,138532,2020-03-20 16:20:09:087
6.971915,-16.304514,-0.957681,0.0,49.847965,24.03544,365.0,NaN,0.72,22.0,0.0,11 / 11,139031,2020-03-20 16:20:09:586
7.915231,-16.505627,1.70946,0.0,49.847965,24.03544,365.0,NaN,0.72,22.0,0.0,11 / 11,139531,2020-03-20 16:20:10:086
17.980455,-18.124107,-15.251065,0.0,49.847965,24.03544,365.0,NaN,0.72,22.0,0.0,11 / 11,140032,2020-03-20 16:20:10:587
7.062895,-9.643845,-0.129287,0.0,49.847965,24.03544,365.0,NaN,0.72,22.0,0.0,11 / 11,140532,2020-03-20 16:20:11:087
-1.240196,-1.527501,-4.304775,0.0,49.847965,24.03544,365.0,NaN,0.72,22.0,0.0,11 / 11,141031,2020-03-20 16:20:11:586
3.950433,-5.343858,1.11091,0.0,49.847965,24.03544,365.0,NaN,0.72,22.0,0.0,11 / 11,141532,2020-03-20 16:20:12:087
4.343082,-8.801085,-2.365471,0.0,49.847965,24.03544,365.0,NaN,0.72,22.0,0.0,11 / 11,142032,2020-03-20 16:20:12:587
1.556231,-7.422025,0.253785,0.0,49.847965,24.03544,365.0,NaN,0.72,22.0,0.0,11 / 11,142531,2020-03-20 16:20:13:086
-1.824382,-1.278504,2.03986,0.0,49.847965,24.03544,365.0,NaN,0.72,22.0,0.0,11 / 11,143031,2020-03-20 16:20:13:586
2.470816,-6.83784,-1.661576,0.0,49.847965,24.03544,365.0,NaN,0.72,22.0,0.0,11 / 11,143532,2020-03-20 16:20:14:087
4.314352,-11.209652,5.822699,0.0,49.847965,24.03544,365.0,NaN,0.72,22.0,0.0,11 / 11,144032,2020-03-20 16:20:14:587
3.916914,-13.292608,1.853112,0.0,49.847965,24.03544,365.0,NaN,0.72,22.0,0.0,11 / 11,144531,2020-03-20 16:20:15:086
4.577714,-16.323668,-1.666364,0.0,49.847965,24.03544,365.0,NaN,0.72,22.0,0.0,11 / 11,145031,2020-03-20 16:20:15:586
9.078813,-23.127989,-19.694704,0.0,49.847965,24.03544,365.0,NaN,0.72,22.0,0.0,11 / 11,145532,2020-03-20 16:20:16:087
5.746084,-10.386047,-4.22816,0.0,49.847965,24.03544,365.0,NaN,0.72,22.0,0.0,11 / 11,146032,2020-03-20 16:20:16:587
5.726931,-6.823475,-2.394202,0.0,49.847965,24.03544,365.0,NaN,0.72,22.0,0.0,11 / 11,146531,2020-03-20 16:20:17:086
2.480393,-8.710106,-2.418144,0.0,49.847965,24.03544,365.0,NaN,0.72,22.0,0.0,11 / 11,147032,2020-03-20 16:20:17:587
4.955998,-11.506534,-2.298433,0.0,49.847965,24.03544,365.0,NaN,0.72,22.0,0.0,11 / 11,147531,2020-03-20 16:20:18:086
-1.35033,-5.784391,-4.802768,0.0,49.847965,24.03544,365.0,NaN,0.72,22.0,0.0,11 / 11,148031,2020-03-20 16:20:18:586
7.508217,-14.839262,-0.220267,0.0,49.847965,24.03544,365.0,NaN,0.72,22.0,0.0,11 / 11,148532,2020-03-20 16:20:19:087
-0.440533,-0.469264,-4.683058,0.0,49.847965,24.03544,365.0,NaN,0.72,22.0,0.0,11 / 11,149031,2020-03-20 16:20:19:586
-3.031059,-10.0748,-1.551443,0.0,49.847965,24.03544,365.0,NaN,0.72,22.0,0.0,11 / 11,149531,2020-03-20 16:20:20:086
1.94888,-4.510676,1.058237,0.0,49.847965,24.03544,365.0,NaN,0.72,22.0,0.0,11 / 11,150032,2020-03-20 16:20:20:587
5.564125,-8.307879,-1.982399,0.0,49.847965,24.03544,365.0,NaN,0.72,22.0,0.0,11 / 11,150532,2020-03-20 16:20:21:087
6.804322,-9.68694,-5.085284,0.0,49.847965,24.03544,365.0,NaN,0.72,22.0,0.0,11 / 11,151031,2020-03-20 16:20:21:586
7.13951,-11.841722,-2.844312,0.0,49.847965,24.03544,365.0,NaN,0.72,22.0,0.0,11 / 11,151532,2020-03-20 16:20:22:087
6.167464,-13.661315,-0.550666,0.0,49.847965,24.03544,365.0,NaN,0.72,22.0,0.0,11 / 11,152032,2020-03-20 16:20:22:587
-0.981623,-2.810793,0.373495,0.0,49.847965,24.03544,365.0,NaN,0.72,22.0,0.0,11 / 11,152531,2020-03-20 16:20:23:086
3.572149,-6.895301,-2.135628,0.0,49.847965,24.03544,365.0,NaN,0.72,22.0,0.0,11 / 11,153032,2020-03-20 16:20:23:587
8.992621,-8.121132,0.818817,0.0,49.847965,24.03544,365.0,NaN,0.72,22.0,0.0,11 / 11,153531,2020-03-20 16:20:24:086
5.382166,-11.444284,0.517148,0.0,49.847965,24.03544,365.0,NaN,0.72,22.0,0.0,11 / 11,154031,2020-03-20 16:20:24:586
3.007117,-22.108059,-2.949656,0.0,49.847965,24.03544,365.0,NaN,0.72,22.0,0.0,11 / 11,154531,2020-03-20 16:20:25:086
9.572019,-14.374787,-2.542642,0.0,49.847965,24.03544,365.0,NaN,0.72,22.0,0.0,11 / 11,155031,2020-03-20 16:20:25:586
8.327033,-12.042834,2.681506,0.0,49.847965,24.03544,365.0,NaN,0.72,22.0,0.0,11 / 11,155531,2020-03-20 16:20:26:086
-0.545878,-0.952892,-2.240973,0.0,49.847965,24.03544,365.0,NaN,0.72,22.0,0.0,11 / 11,156032,2020-03-20 16:20:26:587
6.95755,-8.307879,-2.647987,0.0,49.847965,24.03544,365.0,NaN,0.72,22.0,0.0,11 / 11,156531,2020-03-20 16:20:27:086
1.786075,-6.411672,-0.981623,0.0,49.847965,24.03544,365.0,NaN,0.72,22.0,0.0,11 / 11,157031,2020-03-20 16:20:27:586
0.699107,-6.493075,-2.671929,0.0,49.847965,24.03544,365.0,NaN,0.72,22.0,0.0,11 / 11,157532,2020-03-20 16:20:28:087
6.253655,-12.009315,-1.522712,0.0,49.847965,24.03544,365.0,NaN,0.72,22.0,0.0,11 / 11,158032,2020-03-20 16:20:28:587
-2.681506,-4.841076,-21.284452,0.0,49.847965,24.03544,365.0,NaN,0.72,22.0,0.0,11 / 11,158531,2020-03-20 16:20:29:086
5.415684,-7.699753,-0.3304,0.0,49.847965,24.03544,365.0,NaN,0.72,22.0,0.0,11 / 11,159032,2020-03-20 16:20:29:587
-1.541866,-2.27928,1.278504,0.0,49.847965,24.03544,365.0,NaN,0.72,22.0,0.0,11 / 11,159532,2020-03-20 16:20:30:087
3.15077,-5.530606,2.341529,0.0,49.847965,24.03544,365.0,NaN,0.72,22.0,0.0,11 / 11,160031,2020-03-20 16:20:30:586
3.275268,-7.508216,-0.11971,0.0,49.847965,24.03544,365.0,NaN,0.72,22.0,0.0,11 / 11,160531,2020-03-20 16:20:31:086
6.909666,-8.887277,-2.964022,0.0,49.847965,24.03544,365.0,NaN,0.72,22.0,0.0,11 / 11,161032,2020-03-20 16:20:31:587
-0.392649,-14.058752,-3.955221,0.0,49.847965,24.03544,365.0,NaN,0.72,22.0,0.0,11 / 11,161531,2020-03-20 16:20:32:086
9.165004,-12.009315,-6.995857,0.0,49.847965,24.03544,365.0,NaN,0.72,22.0,0.0,11 / 11,162031,2020-03-20 16:20:32:586
7.565677,-11.980585,-1.541866,0.0,49.847965,24.03544,365.0,NaN,0.72,22.0,0.0,11 / 11,162532,2020-03-20 16:20:33:087
-7.072471,-1.915361,-5.683835,0.0,49.847965,24.03544,365.0,NaN,0.72,22.0,0.0,11 / 11,163031,2020-03-20 16:20:33:586
6.172252,-17.051504,-2.48997,0.0,49.847965,24.03544,365.0,NaN,0.72,22.0,0.0,11 / 11,163532,2020-03-20 16:20:34:087
7.589619,-28.663383,-8.374918,0.0,49.847965,24.03544,365.0,NaN,0.72,22.0,0.0,11 / 11,164032,2020-03-20 16:20:34:587
5.420473,-10.941502,-2.791639,0.0,49.847965,24.03544,365.0,NaN,0.72,22.0,0.0,11 / 11,164531,2020-03-20 16:20:35:086
4.783615,-6.071695,-1.551443,0.0,49.847965,24.03544,365.0,NaN,0.72,22.0,0.0,11 / 11,165031,2020-03-20 16:20:35:586
2.734178,-6.344634,-2.892196,0.0,49.847965,24.03544,365.0,NaN,0.72,22.0,0.0,11 / 11,165532,2020-03-20 16:20:36:087
7.307104,-12.708423,-0.23942,0.0,49.847965,24.03544,365.0,NaN,0.72,22.0,0.0,11 / 11,166031,2020-03-20 16:20:36:586
-0.277727,-0.876278,-1.173159,0.0,49.847965,24.03544,365.0,NaN,0.72,22.0,0.0,11 / 11,166531,2020-03-20 16:20:37:086
3.366248,-9.586384,0.052672,0.0,49.847965,24.03544,365.0,NaN,0.72,22.0,0.0,11 / 11,167032,2020-03-20 16:20:37:587
0.201113,-3.672705,-0.646434,0.0,49.847965,24.03544,365.0,NaN,0.72,22.0,0.0,11 / 11,167532,2020-03-20 16:20:38:087
2.303222,-8.446744,-2.284068,0.0,49.847965,24.03544,365.0,NaN,0.72,22.0,0.0,11 / 11,168031,2020-03-20 16:20:38:586
5.334282,-8.331821,1.584962,0.0,49.847965,24.03544,365.0,NaN,0.72,22.0,0.0,11 / 11,168531,2020-03-20 16:20:39:086
4.659117,-14.805743,0.876278,0.0,49.847965,24.03544,365.0,NaN,0.72,22.0,0.0,11 / 11,169032,2020-03-20 16:20:39:587
0.560243,-16.141708,-5.803545,0.0,49.847965,24.03544,365.0,NaN,0.72,22.0,0.0,11 / 11,169531,2020-03-20 16:20:40:086
-2.992752,-9.380483,-10.840945,0.0,49.847965,24.03544,365.0,NaN,0.72,22.0,0.0,11 / 11,170031,2020-03-20 16:20:40:586
6.909666,-10.43872,-4.812345,0.0,49.847965,24.03544,365.0,NaN,0.72,22.0,0.0,11 / 11,170532,2020-03-20 16:20:41:087
1.838747,-5.827487,-1.833958,0.0,49.847965,24.03544,365.0,NaN,0.72,22.0,0.0,11 / 11,171031,2020-03-20 16:20:41:586
2.691083,-7.824251,-0.47884,0.0,49.847965,24.03544,365.0,NaN,0.72,22.0,0.0,11 / 11,171531,2020-03-20 16:20:42:086
0.148441,-4.256891,0.143652,0.0,49.847965,24.03544,365.0,NaN,0.72,22.0,0.0,11 / 11,172032,2020-03-20 16:20:42:587
9.691729,-5.975927,-2.288857,0.0,49.847965,24.03544,365.0,NaN,0.72,22.0,0.0,11 / 11,172532,2020-03-20 16:20:43:087
10.764331,-4.745308,6.545748,8.0,49.847965,24.03544,365.0,NaN,0.72,22.0,0.0,11 / 11,173031,2020-03-20 16:20:43:586
3.260903,-0.713472,9.260772,8.0,49.847965,24.03544,365.0,NaN,0.72,22.0,0.0,11 / 11,173532,2020-03-20 16:20:44:087
2.70066,4.568137,6.890513,8.0,49.847965,24.03544,365.0,NaN,0.72,22.0,0.0,11 / 11,174031,2020-03-20 16:20:44:586
2.341529,4.165911,6.536171,8.0,49.847965,24.03544,365.0,NaN,0.72,22.0,0.0,11 / 11,174532,2020-03-20 16:20:45:087