ACCELEROMETER X (m/s²),ACCELEROMETER Y (m/s²),ACCELEROMETER Z (m/s²),PROXIMITY (m),LOCATION Latitude : ,LOCATION Longitude : ,LOCATION Altitude ( m),LOCATION Altitude-google ( m),LOCATION Speed ( Kmh),LOCATION Accuracy ( m),LOCATION ORIENTATION (°),Satellites in range,Time since start in ms ,YYYY-MO-DD HH-MI-SS_SSS
4.936844,2.197877,5.114015,8.0,49.848278,24.03529,368.7,NaN,,32.1,,0 / 1,23,2020-03-20 16:28:11:204
7.369353,-9.442732,4.505888,8.0,49.848278,24.03529,368.7,NaN,,32.1,,0 / 1,523,2020-03-20 16:28:11:704
5.899313,2.944868,-4.505887,0.0,49.848278,24.03529,368.7,NaN,,32.1,,0 / 6,1024,2020-03-20 16:28:12:205
2.983175,-6.708553,-2.245761,0.0,49.848278,24.03529,368.7,NaN,,32.1,,0 / 6,1523,2020-03-20 16:28:12:704
5.406108,-5.195418,-1.733402,0.0,49.84853,24.035402,350.0,NaN,3.168,14.0,0.0,7 / 7,2024,2020-03-20 16:28:13:205
2.614468,-13.699622,-1.273715,0.0,49.84853,24.035402,350.0,NaN,3.168,14.0,0.0,7 / 7,2523,2020-03-20 16:28:13:704
0.78051,-3.787627,-3.083732,0.0,49.84853,24.035402,350.0,NaN,3.168,14.0,0.0,7 / 7,3024,2020-03-20 16:28:14:205
5.66947,-9.974244,-0.622492,0.0,49.84853,24.035402,350.0,NaN,3.168,14.0,0.0,7 / 7,3523,2020-03-20 16:28:14:704
-0.301669,-1.345541,-2.284068,0.0,49.84853,24.035402,350.0,NaN,3.168,14.0,0.0,7 / 7,4024,2020-03-20 16:28:15:205
6.11958,-5.884948,-2.652775,0.0,49.84853,24.035402,350.0,NaN,3.168,14.0,0.0,7 / 7,4524,2020-03-20 16:28:15:705
3.787627,-10.730812,-1.656788,0.0,49.84853,24.035402,350.0,NaN,3.168,14.0,0.0,7 / 7,5023,2020-03-20 16:28:16:204
7.642292,-16.82645,-3.069367,0.0,49.84853,24.035402,350.0,NaN,3.168,14.0,0.0,7 / 7,5523,2020-03-20 16:28:16:704
0.42138,-13.326127,-2.106897,0.0,49.84853,24.035402,350.0,NaN,3.168,14.0,0.0,7 / 7,6024,2020-03-20 16:28:17:205
3.687071,-19.55105,-23.688232,0.0,49.84853,24.035402,350.0,NaN,3.168,14.0,0.0,7 / 7,6523,2020-03-20 16:28:17:704
-1.838747,-10.845734,-3.241749,0.0,49.84853,24.035402,350.0,NaN,3.168,14.0,0.0,7 / 7,7023,2020-03-20 16:28:18:204
-1.570596,-6.962338,0.560243,0.0,49.84853,24.035402,350.0,NaN,3.168,14.0,0.0,7 / 7,7524,2020-03-20 16:28:18:705
2.135628,-9.586384,-1.766921,0.0,49.84853,24.035402,350.0,NaN,3.168,14.0,0.0,7 / 7,8023,2020-03-20 16:28:19:204
7.000646,-11.722012,-1.192312,0.0,49.84853,24.035402,350.0,NaN,3.168,14.0,0.0,7 / 7,8523,2020-03-20 16:28:19:704
-1.977611,-0.924162,-0.976834,0.0,49.84853,24.035402,350.0,NaN,3.168,14.0,0.0,7 / 7,9024,2020-03-20 16:28:20:205
2.202666,-15.897499,-2.619257,0.0,49.84853,24.035402,350.0,NaN,3.168,14.0,0.0,7 / 7,9524,2020-03-20 16:28:20:705
0.047884,0.191536,4.151546,0.0,49.84853,24.035402,350.0,NaN,3.168,14.0,0.0,7 / 7,10023,2020-03-20 16:28:21:204
1.254562,-11.535264,0.732626,0.0,49.84853,24.035402,350.0,NaN,3.168,14.0,0.0,7 / 7,10523,2020-03-20 16:28:21:704
-0.21069,-1.934515,-4.256891,0.0,49.84853,24.035402,350.0,NaN,3.168,14.0,0.0,7 / 7,11024,2020-03-20 16:28:22:205
4.606444,-7.982268,-1.307234,0.0,49.84853,24.035402,350.0,NaN,3.168,14.0,0.0,7 / 7,11523,2020-03-20 16:28:22:704
3.021483,-9.284714,-3.428497,0.0,49.84853,24.035402,350.0,NaN,3.168,14.0,0.0,7 / 7,12023,2020-03-20 16:28:23:204
-2.240973,-13.13459,-2.882619,0.0,49.84853,24.035402,350.0,NaN,3.168,14.0,0.0,7 / 7,12524,2020-03-20 16:28:23:705
2.94008,-11.664551,-1.292869,0.0,49.84853,24.035402,350.0,NaN,3.168,14.0,0.0,7 / 7,13023,2020-03-20 16:28:24:204
-0.919373,-2.284068,-5.530606,0.0,49.84853,24.035402,350.0,NaN,3.168,14.0,0.0,7 / 7,13523,2020-03-20 16:28:24:704
0.641646,-12.430696,-0.876278,0.0,49.84853,24.035402,350.0,NaN,3.168,14.0,0.0,7 / 7,14024,2020-03-20 16:28:25:205
-2.82037,-2.183512,-4.965574,0.0,49.84853,24.035402,350.0,NaN,3.168,14.0,0.0,7 / 7,14524,2020-03-20 16:28:25:705
1.92015,-8.082824,-1.565808,0.0,49.84853,24.035402,350.0,NaN,3.168,14.0,0.0,7 / 7,15023,2020-03-20 16:28:26:204
0.646435,-14.465767,-0.047884,0.0,49.84853,24.035402,350.0,NaN,3.168,14.0,0.0,7 / 7,15523,2020-03-20 16:28:26:704
-0.407014,-5.133168,-3.256114,0.0,49.84853,24.035402,350.0,NaN,3.168,14.0,0.0,7 / 7,16024,2020-03-20 16:28:27:205
-0.35913,-9.126697,0.675165,0.0,49.84853,24.035402,350.0,NaN,3.168,14.0,0.0,7 / 7,16524,2020-03-20 16:28:27:705
4.793192,-13.086706,0.488417,0.0,49.84853,24.035402,350.0,NaN,3.168,14.0,0.0,7 / 7,17023,2020-03-20 16:28:28:204
-1.01993,-3.596091,-4.046201,0.0,49.84853,24.035402,350.0,NaN,3.168,14.0,0.0,7 / 7,17523,2020-03-20 16:28:28:704
2.954445,-7.589619,-3.347094,0.0,49.84853,24.035402,350.0,NaN,3.168,14.0,0.0,7 / 7,18024,2020-03-20 16:28:29:205
4.845865,-10.639832,-3.112462,0.0,49.84853,24.035402,350.0,NaN,3.168,14.0,0.0,7 / 7,18523,2020-03-20 16:28:29:704
2.509123,-18.794483,-1.479617,0.0,49.84853,24.035402,350.0,NaN,3.168,14.0,0.0,7 / 7,19023,2020-03-20 16:28:30:204
-5.104438,-14.628572,-5.583278,0.0,49.84853,24.035402,350.0,NaN,3.168,14.0,0.0,7 / 7,19523,2020-03-20 16:28:30:704
-6.569689,-10.309433,-5.166687,0.0,49.84853,24.035402,350.0,NaN,3.168,14.0,0.0,7 / 7,20024,2020-03-20 16:28:31:205
2.777274,-10.812215,-3.303998,0.0,49.84853,24.035402,350.0,NaN,3.168,14.0,0.0,7 / 7,20523,2020-03-20 16:28:31:704
1.053449,-3.270479,-1.11091,0.0,49.84853,24.035402,350.0,NaN,3.168,14.0,0.0,7 / 7,21023,2020-03-20 16:28:32:204
-0.464475,-10.673351,-1.369483,0.0,49.84853,24.035402,350.0,NaN,3.168,14.0,0.0,7 / 7,21524,2020-03-20 16:28:32:705
-2.27928,-5.329493,0.545878,0.0,49.84853,24.035402,350.0,NaN,3.168,14.0,0.0,7 / 7,22024,2020-03-20 16:28:33:205
-0.632069,-6.612785,-1.68073,0.0,49.84853,24.035402,350.0,NaN,3.168,14.0,0.0,7 / 7,22523,2020-03-20 16:28:33:704
-0.670376,-15.820885,-0.387861,0.0,49.84853,24.035402,350.0,NaN,3.168,14.0,0.0,7 / 7,23024,2020-03-20 16:28:34:205
-5.099649,-0.383072,0.627281,0.0,49.84853,24.035402,350.0,NaN,3.168,14.0,0.0,7 / 7,23523,2020-03-20 16:28:34:704
4.036624,-11.942278,-0.861913,0.0,49.84853,24.035402,350.0,NaN,3.168,14.0,0.0,7 / 7,24024,2020-03-20 16:28:35:205
-0.967257,-2.389413,-1.043872,0.0,49.84853,24.035402,350.0,NaN,3.168,14.0,0.0,7 / 7,24523,2020-03-20 16:28:35:704
3.60088,-9.299079,-3.529053,0.0,49.84853,24.035402,350.0,NaN,3.168,14.0,0.0,7 / 7,25023,2020-03-20 16:28:36:204
-2.762909,-13.996503,-1.685518,0.0,49.84853,24.035402,350.0,NaN,3.168,14.0,0.0,7 / 7,25524,2020-03-20 16:28:36:705
10.070012,-17.161638,-0.402226,0.0,49.84853,24.035402,350.0,NaN,3.168,14.0,0.0,7 / 7,26023,2020-03-20 16:28:37:204
1.977611,-13.685257,-2.485181,0.0,49.84853,24.035402,350.0,NaN,3.168,14.0,0.0,7 / 7,26523,2020-03-20 16:28:37:704
0.756568,-4.601655,-1.695095,0.0,49.84853,24.035402,350.0,NaN,3.168,14.0,0.0,7 / 7,27024,2020-03-20 16:28:38:205
2.078167,-6.967127,-1.704672,0.0,49.84853,24.035402,350.0,NaN,3.168,14.0,0.0,7 / 7,27523,2020-03-20 16:28:38:704
0.095768,-12.406754,0.612916,0.0,49.84853,24.035402,350.0,NaN,3.168,14.0,0.0,7 / 7,28023,2020-03-20 16:28:39:204
-4.515464,2.470816,1.872266,0.0,49.84853,24.035402,350.0,NaN,3.168,14.0,0.0,7 / 7,28524,2020-03-20 16:28:39:705
2.547431,-11.257536,-0.129287,0.0,49.84853,24.035402,350.0,NaN,3.168,14.0,0.0,7 / 7,29023,2020-03-20 16:28:40:204
-1.628057,-1.862689,-0.124498,0.0,49.84853,24.035402,350.0,NaN,3.168,14.0,0.0,7 / 7,29523,2020-03-20 16:28:40:704
1.786075,-11.563994,0.177171,0.0,49.84853,24.035402,350.0,NaN,3.168,14.0,0.0,7 / 7,30024,2020-03-20 16:28:41:205
-2.461239,-5.200206,0.416591,0.0,49.84853,24.035402,350.0,NaN,3.168,14.0,0.0,7 / 7,30523,2020-03-20 16:28:41:704
0.373495,-7.570465,-2.82037,0.0,49.84853,24.035402,350.0,NaN,3.168,14.0,0.0,7 / 7,31023,2020-03-20 16:28:42:204
2.102109,-11.860875,-2.633622,0.0,49.84853,24.035402,350.0,NaN,3.168,14.0,0.0,7 / 7,31524,2020-03-20 16:28:42:705
2.499547,-3.222595,-10.788273,0.0,49.84853,24.035402,350.0,NaN,3.168,14.0,0.0,7 / 7,32024,2020-03-20 16:28:43:205
3.05979,-8.791509,0.368707,0.0,49.84853,24.035402,350.0,NaN,3.168,14.0,0.0,7 / 7,32523,2020-03-20 16:28:43:704
-0.02873,-10.419566,-2.825158,0.0,49.84853,24.035402,350.0,NaN,3.168,14.0,0.0,7 / 7,33023,2020-03-20 16:28:44:204
5.473145,-10.563218,-1.422156,0.0,49.84853,24.035402,350.0,NaN,3.168,14.0,0.0,7 / 7,33524,2020-03-20 16:28:44:705
0.196325,-9.572019,0.407014,0.0,49.84853,24.035402,350.0,NaN,3.168,14.0,0.0,7 / 7,34023,2020-03-20 16:28:45:204
8.116344,-14.135366,-2.193089,0.0,49.84853,24.035402,350.0,NaN,3.168,14.0,0.0,7 / 7,34523,2020-03-20 16:28:45:704
-0.579397,-14.532804,0.196325,0.0,49.84853,24.035402,350.0,NaN,3.168,14.0,0.0,7 / 7,35024,2020-03-20 16:28:46:205
-5.032612,-4.146757,-11.903971,0.0,49.84853,24.035402,350.0,NaN,3.168,14.0,0.0,7 / 7,35524,2020-03-20 16:28:46:705
3.495535,-10.16578,-2.422932,0.0,49.84853,24.035402,350.0,NaN,3.168,14.0,0.0,7 / 7,36023,2020-03-20 16:28:47:204
1.043872,-2.346318,0.095768,0.0,49.84853,24.035402,350.0,NaN,3.168,14.0,0.0,7 / 7,36524,2020-03-20 16:28:47:705
4.86023,-7.599196,-2.782062,0.0,49.84853,24.035402,350.0,NaN,3.168,14.0,0.0,7 / 7,37024,2020-03-20 16:28:48:205
3.907337,-13.627796,2.920926,0.0,49.84853,24.035402,350.0,NaN,3.168,14.0,0.0,7 / 7,37523,2020-03-20 16:28:48:704
0.78051,-11.372458,-2.197877,0.0,49.84853,24.035402,350.0,NaN,3.168,14.0,0.0,7 / 7,38023,2020-03-20 16:28:49:204
1.532289,-12.823344,-2.734178,0.0,49.84853,24.035402,350.0,NaN,3.168,14.0,0.0,7 / 7,38524,2020-03-20 16:28:49:705
2.288857,-2.365471,-7.752425,0.0,49.84853,24.035402,350.0,NaN,3.168,14.0,0.0,7 / 7,39024,2020-03-20 16:28:50:205
4.390966,-7.843405,-0.636858,0.0,49.84853,24.035402,350.0,NaN,3.168,14.0,0.0,7 / 7,39523,2020-03-20 16:28:50:704
0.852336,-9.5385,-0.158017,0.0,49.84853,24.035402,350.0,NaN,3.168,14.0,0.0,7 / 7,40023,2020-03-20 16:28:51:204
6.291962,-13.283031,-0.924162,0.0,49.84853,24.035402,350.0,NaN,3.168,14.0,0.0,7 / 7,40524,2020-03-20 16:28:51:705
3.112462,-18.066647,4.180277,0.0,49.84853,24.035402,350.0,NaN,3.168,14.0,0.0,7 / 7,41024,2020-03-20 16:28:52:205
-3.136404,-2.571372,-9.945514,0.0,49.84853,24.035402,350.0,NaN,3.168,14.0,0.0,7 / 7,41523,2020-03-20 16:28:52:704
-2.121263,-16.591818,-3.466804,0.0,49.84853,24.035402,350.0,NaN,3.168,14.0,0.0,7 / 7,42023,2020-03-20 16:28:53:204
-5.808333,-8.623915,-5.137956,0.0,49.84853,24.035402,350.0,NaN,3.168,14.0,0.0,7 / 7,42524,2020-03-20 16:28:53:705
3.280056,-10.271125,-2.078167,0.0,49.84853,24.035402,350.0,NaN,3.168,14.0,0.0,7 / 7,43023,2020-03-20 16:28:54:204
0.363919,-3.433285,-1.096544,0.0,49.84853,24.035402,350.0,NaN,3.168,14.0,0.0,7 / 7,43523,2020-03-20 16:28:54:704
0.718261,-10.491392,-3.581726,0.0,49.84853,24.035402,350.0,NaN,3.168,14.0,0.0,7 / 7,44024,2020-03-20 16:28:55:205
-4.486734,-14.686033,-4.113238,0.0,49.84853,24.035402,350.0,NaN,3.168,14.0,0.0,7 / 7,44524,2020-03-20 16:28:55:705
1.900996,-36.621708,-13.441049,0.0,49.84853,24.035402,350.0,NaN,3.168,14.0,0.0,7 / 7,45023,2020-03-20 16:28:56:204
0.038307,-17.918205,-3.39019,0.0,49.84853,24.035402,350.0,NaN,3.168,14.0,0.0,7 / 7,45523,2020-03-20 16:28:56:704
0.981623,-5.190629,2.39899,0.0,49.84853,24.035402,350.0,NaN,3.168,14.0,0.0,7 / 7,46023,2020-03-20 16:28:57:204
-0.521936,-15.667656,-3.174711,0.0,49.84853,24.035402,350.0,NaN,3.168,14.0,0.0,7 / 7,46524,2020-03-20 16:28:57:705
-0.847547,-4.01747,-0.90022,0.0,49.84853,24.035402,350.0,NaN,3.168,14.0,0.0,7 / 7,47024,2020-03-20 16:28:58:205
1.086968,-7.872135,-1.92015,0.0,49.84853,24.035402,350.0,NaN,3.168,14.0,0.0,7 / 7,47523,2020-03-20 16:28:58:704
-1.987187,-17.075447,0.411803,0.0,49.84853,24.035402,350.0,NaN,3.168,14.0,0.0,7 / 7,48023,2020-03-20 16:28:59:204
-2.686294,-10.122684,-4.276044,0.0,49.84853,24.035402,350.0,NaN,3.168,14.0,0.0,7 / 7,48524,2020-03-20 16:28:59:705
-1.963245,-15.830462,-0.933739,0.0,49.84853,24.035402,350.0,NaN,3.168,14.0,0.0,7 / 7,49023,2020-03-20 16:29:00:204
-1.561019,-3.380613,-9.074024,0.0,49.84853,24.035402,350.0,NaN,3.168,14.0,0.0,7 / 7,49523,2020-03-20 16:29:00:704
3.548207,-15.978902,1.934515,0.0,49.84853,24.035402,350.0,NaN,3.168,14.0,0.0,7 / 7,50024,2020-03-20 16:29:01:205
-0.153229,-1.091756,-3.576937,0.0,49.84853,24.035402,350.0,NaN,3.168,14.0,0.0,7 / 7,50524,2020-03-20 16:29:01:705
2.920926,-8.963891,-1.450886,0.0,49.84853,24.035402,350.0,NaN,3.168,14.0,0.0,7 / 7,51023,2020-03-20 16:29:02:204
2.734178,-11.142614,-1.642422,0.0,49.84853,24.035402,350.0,NaN,3.168,14.0,0.0,7 / 7,51523,2020-03-20 16:29:02:704
0.143652,-17.24304,-2.767697,0.0,49.84853,24.035402,350.0,NaN,3.168,14.0,0.0,7 / 7,52024,2020-03-20 16:29:03:205
2.959233,-17.142485,3.117251,0.0,49.84853,24.035402,350.0,NaN,3.168,14.0,0.0,7 / 7,52524,2020-03-20 16:29:03:705
-0.723049,-0.167594,-4.074931,0.0,49.84853,24.035402,350.0,NaN,3.168,14.0,0.0,7 / 7,53023,2020-03-20 16:29:04:204
5.899313,-10.007763,-0.316035,0.0,49.84853,24.035402,350.0,NaN,3.168,14.0,0.0,7 / 7,53523,2020-03-20 16:29:04:704
-1.532289,-0.905008,-5.415684,0.0,49.84853,24.035402,350.0,NaN,3.168,14.0,0.0,7 / 7,54024,2020-03-20 16:29:05:205
1.661576,-9.634268,-0.387861,0.0,49.84853,24.035402,350.0,NaN,3.168,14.0,0.0,7 / 7,54523,2020-03-20 16:29:05:704
0.067038,-5.822698,-0.92895,0.0,49.84853,24.035402,350.0,NaN,3.168,14.0,0.0,7 / 7,55023,2020-03-20 16:29:06:204
3.251326,-9.797073,-2.082955,0.0,49.84853,24.035402,350.0,NaN,3.168,14.0,0.0,7 / 7,55524,2020-03-20 16:29:06:705
2.992752,-12.038046,-1.04866,0.0,49.84853,24.035402,350.0,NaN,3.168,14.0,0.0,7 / 7,56024,2020-03-20 16:29:07:205
-1.398214,-4.424484,-0.861913,0.0,49.84853,24.035402,350.0,NaN,3.168,14.0,0.0,7 / 7,56523,2020-03-20 16:29:07:704
6.186618,-15.552734,-1.996764,0.0,49.84853,24.035402,350.0,NaN,3.168,14.0,0.0,7 / 7,57023,2020-03-20 16:29:08:204
0.402226,-13.618219,0.105345,0.0,49.84853,24.035402,350.0,NaN,3.168,14.0,0.0,7 / 7,57524,2020-03-20 16:29:08:705
-0.995988,-2.777274,-6.287173,0.0,49.84853,24.035402,350.0,NaN,3.168,14.0,0.0,7 / 7,58024,2020-03-20 16:29:09:205
0.679953,-7.704541,-2.379836,0.0,49.84853,24.035402,350.0,NaN,3.168,14.0,0.0,7 / 7,58523,2020-03-20 16:29:09:704
0.354342,-6.196194,-2.183512,0.0,49.84853,24.035402,350.0,NaN,3.168,14.0,0.0,7 / 7,59023,2020-03-20 16:29:10:204
2.839523,-9.346964,-1.685518,0.0,49.84853,24.035402,350.0,NaN,3.168,14.0,0.0,7 / 7,59524,2020-03-20 16:29:10:705
-2.346318,-17.142485,-1.905785,0.0,49.84853,24.035402,350.0,NaN,3.168,14.0,0.0,7 / 7,60023,2020-03-20 16:29:11:204
-0.833182,-0.986411,-3.883395,0.0,49.84853,24.035402,350.0,NaN,3.168,14.0,0.0,7 / 7,60523,2020-03-20 16:29:11:704
-6.172252,-7.374141,-4.999093,0.0,49.84853,24.035402,350.0,NaN,3.168,14.0,0.0,7 / 7,61024,2020-03-20 16:29:12:205
1.034295,-2.916138,-0.378284,0.0,49.84853,24.035402,350.0,NaN,3.168,14.0,0.0,7 / 7,61523,2020-03-20 16:29:12:704
3.557784,-8.8777,-2.212242,0.0,49.84853,24.035402,350.0,NaN,3.168,14.0,0.0,7 / 7,62024,2020-03-20 16:29:13:205
3.265691,-6.124367,-0.727837,0.0,49.84853,24.035402,350.0,NaN,3.168,14.0,0.0,7 / 7,62524,2020-03-20 16:29:13:705
-1.211466,-11.669339,14.911088,0.0,49.84853,24.035402,350.0,NaN,3.168,14.0,0.0,7 / 7,63023,2020-03-20 16:29:14:204
4.218584,-10.931925,-1.335964,0.0,49.84853,24.035402,350.0,NaN,3.168,14.0,0.0,7 / 7,63523,2020-03-20 16:29:14:704
1.527501,-1.757344,-5.568913,0.0,49.84853,24.035402,350.0,NaN,3.168,14.0,0.0,7 / 7,64024,2020-03-20 16:29:15:205
-1.393425,-9.485827,5.592855,0.0,49.84853,24.035402,350.0,NaN,3.168,14.0,0.0,7 / 7,64523,2020-03-20 16:29:15:704
-0.02873,-3.916914,-0.153229,0.0,49.84853,24.035402,350.0,NaN,3.168,14.0,0.0,7 / 7,65023,2020-03-20 16:29:16:204
-0.421379,-7.546523,-1.039083,0.0,49.84853,24.035402,350.0,NaN,3.168,14.0,0.0,7 / 7,65524,2020-03-20 16:29:16:705
-0.162806,-2.552219,-0.282516,0.0,49.84853,24.035402,350.0,NaN,3.168,14.0,0.0,7 / 7,66024,2020-03-20 16:29:17:205
2.571373,-7.005434,-2.973598,0.0,49.84853,24.035402,350.0,NaN,3.168,14.0,0.0,7 / 7,66523,2020-03-20 16:29:17:704
-0.325611,-9.289502,-3.533841,0.0,49.84853,24.035402,350.0,NaN,3.168,14.0,0.0,7 / 7,67023,2020-03-20 16:29:18:204
9.662998,-16.634912,-3.739743,0.0,49.84853,24.035402,350.0,NaN,3.168,14.0,0.0,7 / 7,67524,2020-03-20 16:29:18:705
-6.842628,-15.796943,-5.837064,0.0,49.84853,24.035402,350.0,NaN,3.168,14.0,0.0,7 / 7,68024,2020-03-20 16:29:19:205
-3.682282,-9.32781,-9.821015,0.0,49.84853,24.035402,350.0,NaN,3.168,14.0,0.0,7 / 7,68523,2020-03-20 16:29:19:704
2.298434,-8.331821,-0.464475,0.0,49.84853,24.035402,350.0,NaN,3.168,14.0,0.0,7 / 7,69024,2020-03-20 16:29:20:205
-1.58975,-13.852851,2.96881,0.0,49.84853,24.035402,350.0,NaN,3.168,14.0,0.0,7 / 7,69524,2020-03-20 16:29:20:705
-0.354342,-16.49126,-1.053449,0.0,49.84853,24.035402,350.0,NaN,3.168,14.0,0.0,7 / 7,70024,2020-03-20 16:29:21:205
2.03986,-13.144167,0.354342,0.0,49.84853,24.035402,350.0,NaN,3.168,14.0,0.0,7 / 7,70523,2020-03-20 16:29:21:704
-0.201113,-2.030283,-6.033388,0.0,49.84853,24.035402,350.0,NaN,3.168,14.0,0.0,7 / 7,71023,2020-03-20 16:29:22:204
4.774039,-6.962338,-1.436521,0.0,49.84853,24.035402,350.0,NaN,3.168,14.0,0.0,7 / 7,71524,2020-03-20 16:29:22:705
2.212242,-9.931149,-1.690306,0.0,49.84853,24.035402,350.0,NaN,3.168,14.0,0.0,7 / 7,72024,2020-03-20 16:29:23:205
-3.064578,-6.526593,-2.896984,0.0,49.84853,24.035402,350.0,NaN,3.168,14.0,0.0,7 / 7,72523,2020-03-20 16:29:23:704
3.725378,-11.133038,-3.39019,0.0,49.84853,24.035402,350.0,NaN,3.168,14.0,0.0,7 / 7,73023,2020-03-20 16:29:24:204
-1.173159,-3.998317,-0.92895,0.0,49.84853,24.035402,350.0,NaN,3.168,14.0,0.0,7 / 7,73524,2020-03-20 16:29:24:705
4.683059,-9.275137,-0.488417,0.0,49.84853,24.035402,350.0,NaN,3.168,14.0,0.0,7 / 7,74023,2020-03-20 16:29:25:204
1.695095,-5.664681,-1.819593,0.0,49.84853,24.035402,350.0,NaN,3.168,14.0,0.0,7 / 7,74523,2020-03-20 16:29:25:704
4.060566,-12.191275,-2.691083,0.0,49.84853,24.035402,350.0,NaN,3.168,14.0,0.0,7 / 7,75023,2020-03-20 16:29:26:204
4.252103,-14.820108,0.100556,0.0,49.84853,24.035402,350.0,NaN,3.168,14.0,0.0,7 / 7,75523,2020-03-20 16:29:26:704
-1.537077,-3.921702,-1.096544,0.0,49.84853,24.035402,350.0,NaN,3.168,14.0,0.0,7 / 7,76024,2020-03-20 16:29:27:205
3.481169,-21.16953,2.451663,0.0,49.84853,24.035402,350.0,NaN,3.168,14.0,0.0,7 / 7,76523,2020-03-20 16:29:27:704
2.025495,-13.000515,-2.42772,0.0,49.84853,24.035402,350.0,NaN,3.168,14.0,0.0,7 / 7,77024,2020-03-20 16:29:28:205
-0.90022,-0.545878,-5.286397,0.0,49.84853,24.035402,350.0,NaN,3.168,14.0,0.0,7 / 7,77523,2020-03-20 16:29:28:704
1.412579,-9.969456,-0.100556,0.0,49.84853,24.035402,350.0,NaN,3.168,14.0,0.0,7 / 7,78024,2020-03-20 16:29:29:205
-0.143652,-5.023035,-0.962469,0.0,49.84853,24.035402,350.0,NaN,3.168,14.0,0.0,7 / 7,78523,2020-03-20 16:29:29:704
2.15957,-7.513005,-0.244209,0.0,49.84853,24.035402,350.0,NaN,3.168,14.0,0.0,7 / 7,79024,2020-03-20 16:29:30:205
-4.673482,-18.574217,-3.399766,0.0,49.84853,24.035402,350.0,NaN,3.168,14.0,0.0,7 / 7,79523,2020-03-20 16:29:30:704
-0.229843,-1.977611,-13.000515,0.0,49.84853,24.035402,350.0,NaN,3.168,14.0,0.0,7 / 7,80023,2020-03-20 16:29:31:204
-3.074155,-8.192958,-6.358999,0.0,49.84853,24.035402,350.0,NaN,3.168,14.0,0.0,7 / 7,80524,2020-03-20 16:29:31:705
1.68073,-12.042834,-3.423708,0.0,49.84853,24.035402,350.0,NaN,3.168,14.0,0.0,7 / 7,81023,2020-03-20 16:29:32:204
5.185841,-9.064447,-0.45011,0.0,49.84853,24.035402,350.0,NaN,3.168,14.0,0.0,7 / 7,81523,2020-03-20 16:29:32:704
1.321599,-10.658986,0.23942,0.0,49.84853,24.035402,350.0,NaN,3.168,14.0,0.0,7 / 7,82024,2020-03-20 16:29:33:205
-2.657564,-1.910573,-4.400542,0.0,49.84853,24.035402,350.0,NaN,3.168,14.0,0.0,7 / 7,82524,2020-03-20 16:29:33:705
1.221043,-12.033257,-3.246537,0.0,49.84853,24.035402,350.0,NaN,3.168,14.0,0.0,7 / 7,83023,2020-03-20 16:29:34:204
-1.460463,-1.719037,-0.593762,0.0,49.84853,24.035402,350.0,NaN,3.168,14.0,0.0,7 / 7,83524,2020-03-20 16:29:34:705
5.837064,-5.200206,-0.794875,0.0,49.84853,24.035402,350.0,NaN,3.168,14.0,0.0,7 / 7,84024,2020-03-20 16:29:35:205
1.091756,-8.968679,2.044648,0.0,49.84853,24.035402,350.0,NaN,3.168,14.0,0.0,7 / 7,84523,2020-03-20 16:29:35:704
1.953669,-13.369223,-3.677494,0.0,49.84853,24.035402,350.0,NaN,3.168,14.0,0.0,7 / 7,85023,2020-03-20 16:29:36:204
4.534618,-11.219229,-4.76925,0.0,49.84853,24.035402,350.0,NaN,3.168,14.0,0.0,0 / 0,85524,2020-03-20 16:29:36:705
-2.834735,-9.634268,-10.371682,0.0,49.84853,24.035402,350.0,NaN,3.168,14.0,0.0,0 / 0,86023,2020-03-20 16:29:37:204
1.264139,-7.359776,-0.588974,0.0,49.84853,24.035402,350.0,NaN,3.168,14.0,0.0,0 / 1,86523,2020-03-20 16:29:37:704
-0.526724,-3.399766,0.670377,0.0,49.84853,24.035402,350.0,NaN,3.168,14.0,0.0,0 / 1,87023,2020-03-20 16:29:38:204
1.005565,-9.509769,-1.666364,0.0,49.84853,24.035402,350.0,NaN,3.168,14.0,0.0,0 / 7,87524,2020-03-20 16:29:38:705
7.201759,-15.365987,-2.566584,0.0,49.84853,24.035402,350.0,NaN,3.168,14.0,0.0,0 / 7,88023,2020-03-20 16:29:39:204
0.272939,-2.432509,-6.526593,0.0,49.84853,24.035402,350.0,NaN,3.168,14.0,0.0,0 / 10,88523,2020-03-20 16:29:39:704
1.762132,-7.441179,0.335188,0.0,49.84853,24.035402,350.0,NaN,3.168,14.0,0.0,0 / 10,89024,2020-03-20 16:29:40:205
-0.023942,-5.631162,0.134075,0.0,49.84853,24.035402,350.0,NaN,3.168,14.0,0.0,0 / 20,89524,2020-03-20 16:29:40:705
3.878607,-7.747637,-2.734178,0.0,49.84853,24.035402,350.0,NaN,3.168,14.0,0.0,0 / 20,90023,2020-03-20 16:29:41:204
3.734955,-13.057976,-6.114791,0.0,49.84808,24.035786,388.0,NaN,1.548,12.0,0.0,15 / 21,90523,2020-03-20 16:29:41:704
4.486734,-19.182344,-5.291186,0.0,49.84808,24.035786,388.0,NaN,1.548,12.0,0.0,15 / 21,91023,2020-03-20 16:29:42:204
3.303998,-13.872005,1.063026,0.0,49.84808,24.035786,388.0,NaN,1.548,12.0,0.0,15 / 21,91523,2020-03-20 16:29:42:704
-0.675165,-1.149217,-4.007893,0.0,49.84808,24.035786,388.0,NaN,1.548,12.0,0.0,15 / 21,92024,2020-03-20 16:29:43:205
0.617704,-7.503428,7.101202,0.0,49.84808,24.035786,388.0,NaN,1.548,12.0,0.0,15 / 21,92523,2020-03-20 16:29:43:704
-2.533065,-9.835381,0.316035,0.0,49.84808,24.035786,388.0,NaN,1.548,12.0,0.0,15 / 21,93023,2020-03-20 16:29:44:204
7.493851,-16.654066,-3.227384,0.0,49.84808,24.035786,388.0,NaN,1.548,12.0,0.0,15 / 21,93524,2020-03-20 16:29:44:705
0.751779,-12.483368,-2.786851,0.0,49.84808,24.035786,388.0,NaN,1.548,12.0,0.0,15 / 21,94024,2020-03-20 16:29:45:205
1.647211,-6.062118,-10.94629,0.0,49.84808,24.035786,388.0,NaN,1.548,12.0,0.0,15 / 21,94523,2020-03-20 16:29:45:704
3.691859,-7.450755,-1.632845,0.0,49.84808,24.035786,388.0,NaN,1.548,12.0,0.0,15 / 21,95024,2020-03-20 16:29:46:205
6.263232,-9.921572,-2.480393,0.0,49.84808,24.035786,388.0,NaN,1.548,12.0,0.0,15 / 21,95523,2020-03-20 16:29:46:704
1.632846,-18.009186,-2.882619,0.0,49.84808,24.035786,388.0,NaN,1.548,12.0,0.0,15 / 21,96023,2020-03-20 16:29:47:204
-0.067038,-18.004396,-3.021482,0.0,49.84808,24.035786,388.0,NaN,1.548,12.0,0.0,15 / 21,96524,2020-03-20 16:29:47:705
-3.442862,-9.667787,-8.408437,0.0,49.84808,24.035786,388.0,NaN,1.548,12.0,0.0,15 / 21,97023,2020-03-20 16:29:48:204
2.475605,-9.586384,-3.011906,0.0,49.84808,24.035786,388.0,NaN,1.548,12.0,0.0,15 / 21,97523,2020-03-20 16:29:48:704
0.047884,-11.022904,-10.117896,0.0,49.84808,24.035786,388.0,NaN,1.548,12.0,0.0,15 / 21,98023,2020-03-20 16:29:49:204
1.752556,-10.55843,-2.748543,0.0,49.84808,24.035786,388.0,NaN,1.548,12.0,0.0,15 / 21,98523,2020-03-20 16:29:49:704
0.924162,-6.335057,-1.292869,0.0,49.84808,24.035786,388.0,NaN,1.548,12.0,0.0,15 / 21,99024,2020-03-20 16:29:50:205
-0.162806,-9.279925,-3.021482,0.0,49.84808,24.035786,388.0,NaN,1.548,12.0,0.0,15 / 21,99523,2020-03-20 16:29:50:704
1.034295,-14.791378,0.488417,0.0,49.84808,24.035786,388.0,NaN,1.548,12.0,0.0,15 / 21,100024,2020-03-20 16:29:51:205
-3.576937,-7.685387,-9.691729,0.0,49.84808,24.035786,388.0,NaN,1.548,12.0,0.0,15 / 21,100523,2020-03-20 16:29:51:704
1.005565,-8.671799,1.752556,0.0,49.84808,24.035786,388.0,NaN,1.548,12.0,0.0,15 / 21,101023,2020-03-20 16:29:52:204
0.895431,-9.040505,-1.733402,0.0,49.84808,24.035786,388.0,NaN,1.548,12.0,0.0,15 / 21,101524,2020-03-20 16:29:52:705
4.371813,-8.39886,-2.48997,0.0,49.84808,24.035786,388.0,NaN,1.548,12.0,0.0,15 / 21,102024,2020-03-20 16:29:53:205
-1.225831,-13.733141,1.144428,0.0,49.84808,24.035786,388.0,NaN,1.548,12.0,0.0,15 / 21,102523,2020-03-20 16:29:53:704
-2.135628,-8.983045,-2.236184,0.0,49.84808,24.035786,388.0,NaN,1.548,12.0,0.0,15 / 21,103024,2020-03-20 16:29:54:205
2.360683,-9.188946,0.038307,0.0,49.84808,24.035786,388.0,NaN,1.548,12.0,0.0,15 / 21,103523,2020-03-20 16:29:54:704
1.628057,-2.063802,0.292093,0.0,49.84808,24.035786,388.0,NaN,1.548,12.0,0.0,15 / 21,104023,2020-03-20 16:29:55:204
-0.890643,-10.55843,-1.613692,0.0,49.84808,24.035786,388.0,NaN,1.548,12.0,0.0,15 / 21,104524,2020-03-20 16:29:55:705
-1.40779,-13.268666,-4.510676,0.0,49.84808,24.035786,388.0,NaN,1.548,12.0,0.0,15 / 21,105023,2020-03-20 16:29:56:204
2.149993,-26.05849,-12.181698,0.0,49.84808,24.035786,388.0,NaN,1.548,12.0,0.0,15 / 21,105523,2020-03-20 16:29:56:704
-4.596867,-14.997279,-4.501099,0.0,49.84808,24.035786,388.0,NaN,1.548,12.0,0.0,15 / 21,106024,2020-03-20 16:29:57:205
1.905785,-28.577192,-13.182474,0.0,49.84808,24.035786,388.0,NaN,1.548,12.0,0.0,15 / 21,106523,2020-03-20 16:29:57:704
1.307234,-11.688493,-1.47004,0.0,49.84808,24.035786,388.0,NaN,1.548,12.0,0.0,15 / 21,107023,2020-03-20 16:29:58:204
3.069367,-8.930372,-1.671153,0.0,49.84808,24.035786,388.0,NaN,1.548,12.0,0.0,15 / 21,107523,2020-03-20 16:29:58:704
2.566584,-8.437167,1.987187,0.0,49.84808,24.035786,388.0,NaN,1.548,12.0,0.0,15 / 21,108024,2020-03-20 16:29:59:205
1.244985,-16.041151,-3.864241,0.0,49.84808,24.035786,388.0,NaN,1.548,12.0,0.0,15 / 21,108523,2020-03-20 16:29:59:704
-5.841852,-8.413225,0.071826,0.0,49.84808,24.035786,388.0,NaN,1.548,12.0,0.0,15 / 21,109023,2020-03-20 16:30:00:204
3.725378,-12.090718,-5.430049,0.0,49.84808,24.035786,388.0,NaN,1.548,12.0,0.0,15 / 21,109524,2020-03-20 16:30:00:705
3.883395,-29.592333,-7.651869,0.0,49.84808,24.035786,388.0,NaN,1.548,12.0,0.0,15 / 21,110023,2020-03-20 16:30:01:204
4.180277,-13.034034,-3.892972,0.0,49.84808,24.035786,388.0,NaN,1.548,12.0,0.0,15 / 21,110523,2020-03-20 16:30:01:704
-1.37906,-2.480393,-2.006341,0.0,49.84808,24.035786,388.0,NaN,1.548,12.0,0.0,15 / 21,111024,2020-03-20 16:30:02:205
3.878607,-5.243302,-3.045424,0.0,49.84808,24.035786,388.0,NaN,1.548,12.0,0.0,15 / 21,111523,2020-03-20 16:30:02:704
0.555455,-12.033257,-3.519476,0.0,49.84808,24.035786,388.0,NaN,1.548,12.0,0.0,15 / 21,112023,2020-03-20 16:30:03:204
7.469909,-14.025233,-4.204218,0.0,49.84808,24.035786,388.0,NaN,1.548,12.0,0.0,15 / 21,112524,2020-03-20 16:30:03:705
-4.88896,-15.255854,-4.046201,0.0,49.84808,24.035786,388.0,NaN,1.548,12.0,0.0,15 / 21,113024,2020-03-20 16:30:04:205
2.96881,-0.799663,-7.067683,0.0,49.84808,24.035786,388.0,NaN,1.548,12.0,0.0,15 / 21,113523,2020-03-20 16:30:04:704
1.345541,-9.385271,-0.560243,0.0,49.84808,24.035786,388.0,NaN,1.548,12.0,0.0,15 / 21,114023,2020-03-20 16:30:05:204
-4.146757,-7.062895,1.56102,0.0,49.84808,24.035786,388.0,NaN,1.548,12.0,0.0,15 / 21,114524,2020-03-20 16:30:05:705
1.35033,-8.12592,-2.705448,0.0,49.84808,24.035786,388.0,NaN,1.548,12.0,0.0,15 / 21,115024,2020-03-20 16:30:06:205
-2.652775,-14.030022,-1.905785,0.0,49.84808,24.035786,388.0,NaN,1.548,12.0,0.0,15 / 21,115523,2020-03-20 16:30:06:704
0.416591,-1.254562,-3.624821,0.0,49.84808,24.035786,388.0,NaN,1.548,12.0,0.0,15 / 21,116023,2020-03-20 16:30:07:204
-4.865018,-11.152191,-2.035071,0.0,49.84808,24.035786,388.0,NaN,1.548,12.0,0.0,15 / 21,116524,2020-03-20 16:30:07:705
0.09098,-7.613561,-1.37906,0.0,49.84808,24.035786,388.0,NaN,1.548,12.0,0.0,15 / 21,117024,2020-03-20 16:30:08:205
0.110133,-7.460332,-0.670376,0.0,49.84808,24.035786,388.0,NaN,1.548,12.0,0.0,15 / 21,117523,2020-03-20 16:30:08:704
1.896208,-10.979809,-3.265691,0.0,49.84808,24.035786,388.0,NaN,1.548,12.0,0.0,15 / 21,118023,2020-03-20 16:30:09:204
0.339977,-4.750096,-1.838747,0.0,49.84808,24.035786,388.0,NaN,1.548,12.0,0.0,15 / 21,118524,2020-03-20 16:30:09:705
-0.062249,-13.603854,-2.351106,0.0,49.84808,24.035786,388.0,NaN,1.548,12.0,0.0,15 / 21,119023,2020-03-20 16:30:10:204
-0.497994,-24.028208,-27.193342,0.0,49.84808,24.035786,388.0,NaN,1.548,12.0,0.0,15 / 21,119523,2020-03-20 16:30:10:704
3.39019,-8.508993,-0.972046,0.0,49.84808,24.035786,388.0,NaN,1.548,12.0,0.0,15 / 21,120024,2020-03-20 16:30:11:205
5.343858,-12.828133,-10.055647,0.0,49.84808,24.035786,388.0,NaN,1.548,12.0,0.0,15 / 21,120524,2020-03-20 16:30:11:705
1.254562,1.934515,14.121001,0.0,49.84808,24.035786,388.0,NaN,1.548,12.0,0.0,15 / 21,121023,2020-03-20 16:30:12:204
7.235278,-11.683704,-3.337517,0.0,49.84808,24.035786,388.0,NaN,1.548,12.0,0.0,15 / 21,121524,2020-03-20 16:30:12:705
0.550666,-7.675811,-11.161768,0.0,49.84808,24.035786,388.0,NaN,1.548,12.0,0.0,15 / 21,122023,2020-03-20 16:30:13:204
1.838747,-7.656657,0.138864,0.0,49.84808,24.035786,388.0,NaN,1.548,12.0,0.0,15 / 21,122524,2020-03-20 16:30:13:705
-1.431733,-7.149086,0.881066,0.0,49.84808,24.035786,388.0,NaN,1.548,12.0,0.0,15 / 21,123023,2020-03-20 16:30:14:204
3.193865,-21.916521,7.254431,0.0,49.84808,24.035786,388.0,NaN,1.548,12.0,0.0,15 / 21,123523,2020-03-20 16:30:14:704
-2.595315,-16.510414,-1.910573,0.0,49.84808,24.035786,388.0,NaN,1.548,12.0,0.0,15 / 21,124023,2020-03-20 16:30:15:204
2.312799,-10.907983,-10.850522,0.0,49.84808,24.035786,388.0,NaN,1.548,12.0,0.0,15 / 21,124523,2020-03-20 16:30:15:704
3.174712,-8.485051,-2.624045,0.0,49.84808,24.035786,388.0,NaN,1.548,12.0,0.0,15 / 21,125023,2020-03-20 16:30:16:204
0.296881,-3.543418,-1.374272,0.0,49.84808,24.035786,388.0,NaN,1.548,12.0,0.0,15 / 21,125523,2020-03-20 16:30:16:704
1.795651,-8.734048,-2.102109,0.0,49.84808,24.035786,388.0,NaN,1.548,12.0,0.0,15 / 21,126023,2020-03-20 16:30:17:204
1.335965,-13.302185,-0.632069,0.0,49.84808,24.035786,388.0,NaN,1.548,12.0,0.0,15 / 21,126523,2020-03-20 16:30:17:704
0.6608,-8.772355,-1.154005,0.0,49.84808,24.035786,388.0,NaN,1.548,12.0,0.0,15 / 21,127024,2020-03-20 16:30:18:205
3.466804,-10.687716,-3.529053,0.0,49.84808,24.035786,388.0,NaN,1.548,12.0,0.0,15 / 21,127523,2020-03-20 16:30:18:704
0.967258,-1.225831,1.182736,0.0,49.84808,24.035786,388.0,NaN,1.548,12.0,0.0,15 / 21,128023,2020-03-20 16:30:19:204
-0.732626,-6.727707,-1.455675,0.0,49.84808,24.035786,388.0,NaN,1.548,12.0,0.0,15 / 21,128524,2020-03-20 16:30:19:705
2.202666,-12.459426,0.205901,0.0,49.84808,24.035786,388.0,NaN,1.548,12.0,0.0,15 / 21,129023,2020-03-20 16:30:20:204
-3.222595,1.570596,-0.234632,0.0,49.84808,24.035786,388.0,NaN,1.548,12.0,0.0,15 / 21,129524,2020-03-20 16:30:20:705
5.516241,-9.988609,-0.158017,0.0,49.84808,24.035786,388.0,NaN,1.548,12.0,0.0,15 / 21,130023,2020-03-20 16:30:21:204
-0.823605,-4.276044,-2.30801,0.0,49.84808,24.035786,388.0,NaN,1.548,12.0,0.0,15 / 21,130523,2020-03-20 16:30:21:704
0.756568,-7.043741,-1.996764,0.0,49.84808,24.035786,388.0,NaN,1.548,12.0,0.0,15 / 21,131023,2020-03-20 16:30:22:204
-5.262455,-17.635689,-1.01993,0.0,49.84808,24.035786,388.0,NaN,1.548,12.0,0.0,15 / 21,131524,2020-03-20 16:30:22:705
-2.806004,-8.90643,-2.207454,0.0,49.84808,24.035786,388.0,NaN,1.548,12.0,0.0,15 / 21,132023,2020-03-20 16:30:23:204
2.413355,-11.444284,-3.366248,0.0,49.84808,24.035786,388.0,NaN,1.548,12.0,0.0,15 / 21,132523,2020-03-20 16:30:23:704
0.047884,-2.135628,-2.724601,0.0,49.84808,24.035786,388.0,NaN,1.548,12.0,0.0,15 / 21,133024,2020-03-20 16:30:24:205
6.607997,-6.799533,-1.106121,0.0,49.84808,24.035786,388.0,NaN,1.548,12.0,0.0,15 / 21,133523,2020-03-20 16:30:24:704
0.292093,-8.935161,-4.874594,0.0,49.84808,24.035786,388.0,NaN,1.548,12.0,0.0,15 / 21,134023,2020-03-20 16:30:25:204
7.264008,-4.663905,-1.288081,0.0,49.84808,24.035786,388.0,NaN,1.548,12.0,0.0,15 / 21,134524,2020-03-20 16:30:25:705
-1.92015,-12.943054,0.727837,0.0,49.84808,24.035786,388.0,NaN,1.548,12.0,0.0,15 / 21,135023,2020-03-20 16:30:26:204
-5.080496,-4.635174,-0.952892,0.0,49.84808,24.035786,388.0,NaN,1.548,12.0,0.0,15 / 21,135523,2020-03-20 16:30:26:704
2.829947,-12.119449,-0.627281,0.0,49.84808,24.035786,388.0,NaN,1.548,12.0,0.0,15 / 21,136024,2020-03-20 16:30:27:205
-0.057461,-3.294421,-1.527501,0.0,49.84808,24.035786,388.0,NaN,1.548,12.0,0.0,15 / 21,136523,2020-03-20 16:30:27:704
1.077391,-9.409213,-1.40779,0.0,49.84808,24.035786,388.0,NaN,1.548,12.0,0.0,15 / 21,137023,2020-03-20 16:30:28:204
-0.727837,-13.330915,2.94008,0.0,49.84808,24.035786,388.0,NaN,1.548,12.0,0.0,15 / 21,137524,2020-03-20 16:30:28:705
-2.173935,-16.869543,-6.933608,0.0,49.84808,24.035786,388.0,NaN,1.548,12.0,0.0,15 / 21,138023,2020-03-20 16:30:29:204
7.455544,-16.606182,-6.41646,0.0,49.84808,24.035786,388.0,NaN,1.548,12.0,0.0,15 / 21,138523,2020-03-20 16:30:29:704
-0.866701,-8.135497,-11.597513,0.0,49.84808,24.035786,388.0,NaN,1.548,12.0,0.0,15 / 21,139024,2020-03-20 16:30:30:205
2.015918,-7.627927,0.588974,0.0,49.84808,24.035786,388.0,NaN,1.548,12.0,0.0,15 / 21,139523,2020-03-20 16:30:30:704
-0.023942,-5.042188,-0.550666,0.0,49.84808,24.035786,388.0,NaN,1.548,12.0,0.0,15 / 21,140023,2020-03-20 16:30:31:204
0.023942,-5.592855,-2.284068,0.0,49.84808,24.035786,388.0,NaN,1.548,12.0,0.0,15 / 21,140524,2020-03-20 16:30:31:705
-0.062249,-14.413095,0.263362,0.0,49.84808,24.035786,388.0,NaN,1.548,12.0,0.0,15 / 21,141023,2020-03-20 16:30:32:204
0.493206,-10.280702,-5.650316,0.0,49.84808,24.035786,388.0,NaN,1.548,12.0,0.0,15 / 21,141523,2020-03-20 16:30:32:704
3.050213,-12.378023,-5.27682,0.0,49.84808,24.035786,388.0,NaN,1.548,12.0,0.0,15 / 21,142024,2020-03-20 16:30:33:205
-1.388637,-20.499157,-5.291186,0.0,49.84808,24.035786,388.0,NaN,1.548,12.0,0.0,15 / 21,142523,2020-03-20 16:30:33:704
3.763685,-12.129025,-4.223372,0.0,49.84808,24.035786,388.0,NaN,1.548,12.0,0.0,15 / 21,143024,2020-03-20 16:30:34:205
-0.129287,0.292093,-2.643199,0.0,49.84808,24.035786,388.0,NaN,1.548,12.0,0.0,15 / 21,143524,2020-03-20 16:30:34:705
1.254562,-8.75799,0.009577,0.0,49.84808,24.035786,388.0,NaN,1.548,12.0,0.0,15 / 21,144023,2020-03-20 16:30:35:204
-0.474052,-2.346318,1.292869,0.0,49.84808,24.035786,388.0,NaN,1.548,12.0,0.0,15 / 21,144524,2020-03-20 16:30:35:705
1.096544,-6.675034,-2.499546,0.0,49.84808,24.035786,388.0,NaN,1.548,12.0,0.0,15 / 21,145023,2020-03-20 16:30:36:204
0.799663,-12.354081,-3.892972,0.0,49.84808,24.035786,388.0,NaN,1.548,12.0,0.0,15 / 21,145523,2020-03-20 16:30:36:704
0.952892,-10.084377,0.234632,0.0,49.84808,24.035786,388.0,NaN,1.548,12.0,0.0,15 / 21,146023,2020-03-20 16:30:37:204
3.026271,-12.148179,4.395755,0.0,49.84808,24.035786,388.0,NaN,1.548,12.0,0.0,15 / 21,146524,2020-03-20 16:30:37:705
1.527501,-5.808333,-8.973468,0.0,49.84808,24.035786,388.0,NaN,1.548,12.0,0.0,15 / 21,147023,2020-03-20 16:30:38:204
1.977611,-9.758766,-0.526724,0.0,49.84808,24.035786,388.0,NaN,1.548,12.0,0.0,15 / 21,147523,2020-03-20 16:30:38:704
-0.895431,-6.665457,-0.684742,0.0,49.84808,24.035786,388.0,NaN,1.548,12.0,0.0,15 / 21,148024,2020-03-20 16:30:39:205
0.684742,-4.793192,0.407014,0.0,49.84808,24.035786,388.0,NaN,1.548,12.0,0.0,15 / 21,148523,2020-03-20 16:30:39:704
-7.43639,-15.50485,-4.161122,0.0,49.84808,24.035786,388.0,NaN,1.548,12.0,0.0,15 / 21,149023,2020-03-20 16:30:40:204
0.948104,-16.333244,-18.55985,0.0,49.84808,24.035786,388.0,NaN,1.548,12.0,0.0,15 / 21,149524,2020-03-20 16:30:40:705
3.734955,-9.557653,-1.321599,0.0,49.84808,24.035786,388.0,NaN,1.548,12.0,0.0,15 / 21,150024,2020-03-20 16:30:41:205
-2.494758,-2.705448,-6.062118,0.0,49.84808,24.035786,388.0,NaN,1.548,12.0,0.0,15 / 21,150523,2020-03-20 16:30:41:704
1.80044,-10.026917,1.92015,0.0,49.84808,24.035786,388.0,NaN,1.548,12.0,0.0,15 / 21,151023,2020-03-20 16:30:42:204
-0.933739,-4.951209,0.354342,0.0,49.84808,24.035786,388.0,NaN,1.548,12.0,0.0,15 / 21,151524,2020-03-20 16:30:42:705
-0.871489,-8.063671,-0.967257,0.0,49.84808,24.035786,388.0,NaN,1.548,12.0,0.0,15 / 21,152024,2020-03-20 16:30:43:205
2.595315,-14.259866,-1.58975,0.0,49.84808,24.035786,388.0,NaN,1.548,12.0,0.0,15 / 21,152523,2020-03-20 16:30:43:704
2.978387,-6.952761,-9.035717,0.0,49.84808,24.035786,388.0,NaN,1.548,12.0,0.0,15 / 21,153024,2020-03-20 16:30:44:205
2.044648,-7.264008,2.06859,0.0,49.84808,24.035786,388.0,NaN,1.548,12.0,0.0,15 / 21,153523,2020-03-20 16:30:44:704
-3.064578,-6.622362,0.292093,0.0,49.84808,24.035786,388.0,NaN,1.548,12.0,0.0,15 / 21,154023,2020-03-20 16:30:45:204
2.63841,-7.718906,-0.205901,0.0,49.84808,24.035786,388.0,NaN,1.548,12.0,0.0,15 / 21,154524,2020-03-20 16:30:45:705
0.009577,-14.532804,-0.095768,0.0,49.84808,24.035786,388.0,NaN,1.548,12.0,0.0,15 / 21,155024,2020-03-20 16:30:46:205
-1.786074,-0.105345,-2.561796,0.0,49.84808,24.035786,388.0,NaN,1.548,12.0,0.0,15 / 21,155523,2020-03-20 16:30:46:704
2.207454,-11.358093,-3.256114,0.0,49.84808,24.035786,388.0,NaN,1.548,12.0,0.0,15 / 21,156024,2020-03-20 16:30:47:205
-0.186748,-1.292869,-1.766921,0.0,49.84808,24.035786,388.0,NaN,1.548,12.0,0.0,15 / 21,156523,2020-03-20 16:30:47:704
7.11078,-7.972691,3.040636,0.0,49.84808,24.035786,388.0,NaN,1.548,12.0,0.0,15 / 21,157023,2020-03-20 16:30:48:204
-0.445322,-3.481169,1.225831,0.0,49.84808,24.035786,388.0,NaN,1.548,12.0,0.0,15 / 21,157523,2020-03-20 16:30:48:704
-1.790863,-7.489063,-1.848324,0.0,49.84808,24.035786,388.0,NaN,1.548,12.0,0.0,15 / 21,158023,2020-03-20 16:30:49:204
0.057461,-13.086706,0.981623,0.0,49.84808,24.035786,388.0,NaN,1.548,12.0,0.0,15 / 21,158523,2020-03-20 16:30:49:704
-0.402226,-12.028469,-3.117251,0.0,49.84808,24.035786,388.0,NaN,1.548,12.0,0.0,15 / 21,159024,2020-03-20 16:30:50:205
2.992752,-10.716447,0.426168,0.0,49.84808,24.035786,388.0,NaN,1.548,12.0,0.0,15 / 21,159523,2020-03-20 16:30:50:704
-1.125275,-4.180276,2.418144,0.0,49.84808,24.035786,388.0,NaN,1.548,12.0,0.0,15 / 21,160023,2020-03-20 16:30:51:204
4.094085,-6.933608,-4.357447,0.0,49.84808,24.035786,388.0,NaN,1.548,12.0,0.0,15 / 21,160524,2020-03-20 16:30:51:705
2.178724,-16.232687,-0.287304,0.0,49.84808,24.035786,388.0,NaN,1.548,12.0,0.0,15 / 21,161023,2020-03-20 16:30:52:204
0.761356,-19.2829,-0.842759,0.0,49.84808,24.035786,388.0,NaN,1.548,12.0,0.0,15 / 21,161523,2020-03-20 16:30:52:704
-7.254431,-15.102624,-2.801216,0.0,49.84808,24.035786,388.0,NaN,1.548,12.0,0.0,15 / 21,162024,2020-03-20 16:30:53:205
0.588974,-22.117636,-28.031313,0.0,49.84808,24.035786,388.0,NaN,1.548,12.0,0.0,15 / 21,162523,2020-03-20 16:30:53:704
1.398214,-12.497733,-4.213795,0.0,49.84808,24.035786,388.0,NaN,1.548,12.0,0.0,15 / 21,163024,2020-03-20 16:30:54:205
1.762132,-15.08347,-7.560889,0.0,49.84808,24.035786,388.0,NaN,1.548,12.0,0.0,15 / 21,163524,2020-03-20 16:30:54:705
5.185841,-13.52724,-2.365471,0.0,49.84808,24.035786,388.0,NaN,1.548,12.0,0.0,15 / 21,164023,2020-03-20 16:30:55:204
-1.474828,0.526724,0.038307,0.0,49.84808,24.035786,388.0,NaN,1.548,12.0,0.0,15 / 21,164524,2020-03-20 16:30:55:705
0.086191,-10.16578,-0.565032,0.0,49.84808,24.035786,388.0,NaN,1.548,12.0,0.0,15 / 21,165024,2020-03-20 16:30:56:205
0.052672,-17.745823,-3.203442,0.0,49.84808,24.035786,388.0,NaN,1.548,12.0,0.0,15 / 21,165523,2020-03-20 16:30:56:704
-7.939172,-14.302961,-13.10586,0.0,49.84808,24.035786,388.0,NaN,1.548,12.0,0.0,15 / 21,166024,2020-03-20 16:30:57:205
-2.48997,-8.829816,3.193865,0.0,49.84808,24.035786,388.0,NaN,1.548,12.0,0.0,15 / 21,166524,2020-03-20 16:30:57:705
0.871489,-11.013328,0.885855,0.0,49.84808,24.035786,388.0,NaN,1.548,12.0,0.0,15 / 21,167023,2020-03-20 16:30:58:204
2.686294,-8.963891,-3.883395,0.0,49.84808,24.035786,388.0,NaN,1.548,12.0,0.0,15 / 21,167523,2020-03-20 16:30:58:704
1.197101,-10.400413,-6.23929,0.0,49.84808,24.035786,388.0,NaN,1.548,12.0,0.0,15 / 21,168024,2020-03-20 16:30:59:205
-4.34787,-6.133945,-2.020706,0.0,49.84808,24.035786,388.0,NaN,1.548,12.0,0.0,15 / 21,168523,2020-03-20 16:30:59:704
1.714248,-11.219229,1.063026,0.0,49.84808,24.035786,388.0,NaN,1.548,12.0,0.0,15 / 21,169023,2020-03-20 16:31:00:204
-1.94888,-3.064578,-2.513912,0.0,49.84808,24.035786,388.0,NaN,1.548,12.0,0.0,15 / 21,169523,2020-03-20 16:31:00:704
1.225831,-5.554548,-2.317587,0.0,49.84808,24.035786,388.0,NaN,1.548,12.0,0.0,15 / 21,170024,2020-03-20 16:31:01:205
0.21069,-10.802638,-1.599327,0.0,49.84808,24.035786,388.0,NaN,1.548,12.0,0.0,0 / 0,170524,2020-03-20 16:31:01:705
2.738967,-8.657434,4.031836,0.0,49.84808,24.035786,388.0,NaN,1.548,12.0,0.0,0 / 0,171023,2020-03-20 16:31:02:204
4.094085,-11.401189,-0.651223,0.0,49.84808,24.035786,388.0,NaN,1.548,12.0,0.0,0 / 1,171524,2020-03-20 16:31:02:705
1.647211,-8.207323,-8.537724,0.0,49.84808,24.035786,388.0,NaN,1.548,12.0,0.0,0 / 1,172023,2020-03-20 16:31:03:204
0.277727,-7.067683,-4.893748,0.0,49.84808,24.035786,388.0,NaN,1.548,12.0,0.0,0 / 5,172523,2020-03-20 16:31:03:704
1.364695,-8.528147,-6.382941,0.0,49.84808,24.035786,388.0,NaN,1.548,12.0,0.0,0 / 5,173024,2020-03-20 16:31:04:205
9.141062,-9.184157,0.42138,0.0,49.84808,24.035786,388.0,NaN,1.548,12.0,0.0,0 / 7,173524,2020-03-20 16:31:04:705
7.953538,-14.413095,-2.494758,0.0,49.84808,24.035786,388.0,NaN,1.548,12.0,0.0,0 / 7,174023,2020-03-20 16:31:05:204
0.651223,-1.40779,4.683059,8.0,49.84808,24.035786,388.0,NaN,1.548,12.0,0.0,19 / 19,174523,2020-03-20 16:31:05:704
2.418144,4.994305,13.445837,8.0,49.84808,24.035786,388.0,NaN,1.548,12.0,0.0,19 / 19,175023,2020-03-20 16:31:06:204
0.670377,4.730943,8.403648,8.0,49.84808,24.035786,388.0,NaN,1.548,12.0,0.0,19 / 19,175524,2020-03-20 16:31:06:705
0.866701,3.442862,9.495404,8.0,49.84808,24.035786,388.0,NaN,1.548,12.0,0.0,19 / 19,176023,2020-03-20 16:31:07:204
1.479617,4.314352,6.737284,8.0,49.84808,24.035786,388.0,NaN,1.548,12.0,0.0,19 / 19,176523,2020-03-20 16:31:07:704