ACCELEROMETER X (m/s²),ACCELEROMETER Y (m/s²),ACCELEROMETER Z (m/s²),PROXIMITY (m),LOCATION Latitude : ,LOCATION Longitude : ,LOCATION Altitude ( m),LOCATION Altitude-google ( m),LOCATION Speed ( Kmh),LOCATION Accuracy ( m),LOCATION ORIENTATION (°),Satellites in range,Time since start in ms ,YYYY-MO-DD HH-MI-SS_SSS
3.763685,-5.980716,7.891289,8.0,49.84883,24.038143,381.0,NaN,3.96,7.0,244.2,24 / 25,19,2020-03-19 20:16:28:529
5.386954,-11.070788,7.129933,0.0,49.84883,24.038143,381.0,NaN,3.96,7.0,244.2,24 / 25,519,2020-03-19 20:16:29:029
-3.011906,-6.41646,-3.294421,0.0,49.84883,24.038143,381.0,NaN,3.96,7.0,244.2,24 / 25,1019,2020-03-19 20:16:29:529
-3.399766,-9.361329,0.746991,0.0,49.84883,24.038143,381.0,NaN,3.96,7.0,244.2,24 / 25,1519,2020-03-19 20:16:30:029
-2.485181,-15.093047,-1.608903,0.0,49.84883,24.038143,381.0,NaN,3.96,7.0,244.2,24 / 25,2019,2020-03-19 20:16:30:529
6.6894,-14.269443,-8.130708,0.0,49.84883,24.038143,381.0,NaN,3.96,7.0,244.2,24 / 25,2520,2020-03-19 20:16:31:030
4.146757,-11.171345,-0.59855,0.0,49.84883,24.038143,381.0,NaN,3.96,7.0,244.2,24 / 25,3019,2020-03-19 20:16:31:529
-4.371812,-2.662352,0.167594,0.0,49.84883,24.038143,381.0,NaN,3.96,7.0,244.2,24 / 25,3519,2020-03-19 20:16:32:029
2.873042,-11.621455,1.053449,0.0,49.84883,24.038143,381.0,NaN,3.96,7.0,244.2,24 / 25,4019,2020-03-19 20:16:32:529
-0.282516,-4.831499,-1.714248,0.0,49.84883,24.038143,381.0,NaN,3.96,7.0,244.2,24 / 25,4520,2020-03-19 20:16:33:030
1.345541,-7.173028,-0.474052,0.0,49.84883,24.038143,381.0,NaN,3.96,7.0,244.2,24 / 25,5020,2020-03-19 20:16:33:530
-0.043096,-10.922348,-5.60722,0.0,49.84883,24.038143,381.0,NaN,3.96,7.0,244.2,24 / 25,5520,2020-03-19 20:16:34:030
1.383849,-10.362105,-2.944868,0.0,49.84883,24.038143,381.0,NaN,3.96,7.0,244.2,24 / 25,6020,2020-03-19 20:16:34:530
0.47884,-11.626244,0.387861,0.0,49.84883,24.038143,381.0,NaN,3.96,7.0,244.2,24 / 25,6519,2020-03-19 20:16:35:029
2.542642,-4.845864,-3.265691,0.0,49.84883,24.038143,381.0,NaN,3.96,7.0,244.2,24 / 25,7019,2020-03-19 20:16:35:529
0.814029,-8.298302,0.311246,0.0,49.84883,24.038143,381.0,NaN,3.96,7.0,244.2,24 / 25,7519,2020-03-19 20:16:36:029
3.332729,-10.46745,-2.590526,0.0,49.84883,24.038143,381.0,NaN,3.96,7.0,244.2,24 / 25,8020,2020-03-19 20:16:36:530
1.733402,-13.067553,-1.690306,0.0,49.84883,24.038143,381.0,NaN,3.96,7.0,244.2,24 / 25,8519,2020-03-19 20:16:37:029
1.747767,-10.117896,-0.143652,0.0,49.84883,24.038143,381.0,NaN,3.96,7.0,244.2,24 / 25,9019,2020-03-19 20:16:37:529
1.517924,-11.980585,-0.09098,0.0,49.84883,24.038143,381.0,NaN,3.96,7.0,244.2,24 / 25,9519,2020-03-19 20:16:38:029
-0.952892,-17.764977,0.153229,0.0,49.84883,24.038143,381.0,NaN,3.96,7.0,244.2,24 / 25,10020,2020-03-19 20:16:38:530
4.716578,-5.056554,-1.11091,0.0,49.84883,24.038143,381.0,NaN,3.96,7.0,244.2,24 / 25,10519,2020-03-19 20:16:39:029
-0.287304,-10.448297,0.316035,0.0,49.84883,24.038143,381.0,NaN,3.96,7.0,244.2,24 / 25,11019,2020-03-19 20:16:39:529
-1.11091,-4.434061,-1.910573,0.0,49.84883,24.038143,381.0,NaN,3.96,7.0,244.2,24 / 25,11519,2020-03-19 20:16:40:029
1.000776,-7.987056,-0.325611,0.0,49.84883,24.038143,381.0,NaN,3.96,7.0,244.2,24 / 25,12020,2020-03-19 20:16:40:530
2.39899,-13.31655,0.675165,0.0,49.84883,24.038143,381.0,NaN,3.96,7.0,244.2,24 / 25,12520,2020-03-19 20:16:41:030
8.422802,-20.36029,-3.337517,0.0,49.84883,24.038143,381.0,NaN,3.96,7.0,244.2,24 / 25,13020,2020-03-19 20:16:41:530
2.633622,-12.938266,0.004788,0.0,49.84883,24.038143,381.0,NaN,3.96,7.0,244.2,24 / 25,13520,2020-03-19 20:16:42:030
2.422932,-4.333505,-2.082955,0.0,49.84883,24.038143,381.0,NaN,3.96,7.0,244.2,24 / 25,14020,2020-03-19 20:16:42:530
0.344765,-8.461109,-1.015141,0.0,49.84883,24.038143,381.0,NaN,3.96,7.0,244.2,24 / 25,14520,2020-03-19 20:16:43:030
5.214572,-3.476381,-4.46758,0.0,49.84883,24.038143,381.0,NaN,3.96,7.0,244.2,24 / 25,15019,2020-03-19 20:16:43:529
1.857901,-8.212111,0.335188,0.0,49.84883,24.038143,381.0,NaN,3.96,7.0,244.2,24 / 25,15519,2020-03-19 20:16:44:029
0.909797,-10.481815,-1.091756,0.0,49.84883,24.038143,381.0,NaN,3.96,7.0,244.2,24 / 25,16019,2020-03-19 20:16:44:529
-3.888183,-7.613561,3.672706,0.0,49.84883,24.038143,381.0,NaN,3.96,7.0,244.2,24 / 25,16519,2020-03-19 20:16:45:029
1.872266,-12.061988,0.440533,0.0,49.84883,24.038143,381.0,NaN,3.96,7.0,244.2,24 / 25,17019,2020-03-19 20:16:45:529
-0.679953,-3.495534,0.009577,0.0,49.84883,24.038143,381.0,NaN,3.96,7.0,244.2,24 / 25,17519,2020-03-19 20:16:46:029
1.637634,-7.479486,1.177947,0.0,49.84883,24.038143,381.0,NaN,3.96,7.0,244.2,24 / 25,18019,2020-03-19 20:16:46:529
0.651223,-9.303867,-4.802768,0.0,49.84883,24.038143,381.0,NaN,3.96,7.0,244.2,24 / 25,18519,2020-03-19 20:16:47:029
2.834735,-6.679823,-0.339977,0.0,49.84883,24.038143,381.0,NaN,3.96,7.0,244.2,24 / 25,19019,2020-03-19 20:16:47:529
-2.504335,-16.558298,-1.015141,0.0,49.84883,24.038143,381.0,NaN,3.96,7.0,244.2,24 / 25,19519,2020-03-19 20:16:48:029
2.896984,-5.468356,0.545878,0.0,49.84883,24.038143,381.0,NaN,3.96,7.0,244.2,24 / 25,20019,2020-03-19 20:16:48:529
5.43005,-11.133038,-0.574608,0.0,49.84883,24.038143,381.0,NaN,3.96,7.0,244.2,24 / 25,20519,2020-03-19 20:16:49:029
-1.426944,-3.576937,0.196325,0.0,49.84883,24.038143,381.0,NaN,3.96,7.0,244.2,24 / 25,21019,2020-03-19 20:16:49:529
2.054225,-10.649409,1.862689,0.0,49.84883,24.038143,381.0,NaN,3.96,7.0,244.2,24 / 25,21520,2020-03-19 20:16:50:030
0.368707,-1.848324,-2.360683,0.0,49.84883,24.038143,381.0,NaN,3.96,7.0,244.2,24 / 25,22020,2020-03-19 20:16:50:530
1.68073,-7.565677,0.603339,0.0,49.84883,24.038143,381.0,NaN,3.96,7.0,244.2,24 / 25,22520,2020-03-19 20:16:51:030
-0.732626,-6.660669,-3.490746,0.0,49.84883,24.038143,381.0,NaN,3.96,7.0,244.2,24 / 25,23020,2020-03-19 20:16:51:530
1.790863,-8.087613,2.001553,0.0,49.84883,24.038143,381.0,NaN,3.96,7.0,244.2,24 / 25,23520,2020-03-19 20:16:52:030
0.435745,-11.899182,-1.091756,0.0,49.84883,24.038143,381.0,NaN,3.96,7.0,244.2,24 / 25,24020,2020-03-19 20:16:52:530
19.88624,-29.625853,-18.454506,0.0,49.84883,24.038143,381.0,NaN,3.96,7.0,244.2,24 / 25,24520,2020-03-19 20:16:53:030
0.383072,-8.8777,0.435745,0.0,49.84883,24.038143,381.0,NaN,3.96,7.0,244.2,24 / 25,25019,2020-03-19 20:16:53:529
-0.986411,-7.479486,0.344765,0.0,49.84883,24.038143,381.0,NaN,3.96,7.0,244.2,24 / 25,25520,2020-03-19 20:16:54:030
-3.979163,-9.155427,-0.593762,0.0,49.84883,24.038143,381.0,NaN,3.96,7.0,244.2,24 / 25,26019,2020-03-19 20:16:54:529
1.240197,-14.015656,4.161122,0.0,49.84883,24.038143,381.0,NaN,3.96,7.0,244.2,24 / 25,26520,2020-03-19 20:16:55:030
-0.861913,-8.365341,0.842759,0.0,49.84883,24.038143,381.0,NaN,3.96,7.0,244.2,24 / 25,27020,2020-03-19 20:16:55:530
-4.22816,-13.254301,-4.328717,0.0,49.84883,24.038143,381.0,NaN,3.96,7.0,244.2,24 / 25,27520,2020-03-19 20:16:56:030
4.726155,-7.015011,-3.739743,0.0,49.84883,24.038143,381.0,NaN,3.96,7.0,244.2,24 / 25,28020,2020-03-19 20:16:56:530
0.158017,-8.504205,0.311246,0.0,49.84883,24.038143,381.0,NaN,3.96,7.0,244.2,24 / 25,28520,2020-03-19 20:16:57:030
0.411803,-8.317456,-3.347094,0.0,49.84883,24.038143,381.0,NaN,3.96,7.0,244.2,24 / 25,29020,2020-03-19 20:16:57:530
3.849877,-14.45619,-1.221043,0.0,49.84883,24.038143,381.0,NaN,3.96,7.0,244.2,24 / 25,29520,2020-03-19 20:16:58:030
-5.750872,-14.781801,-2.580949,0.0,49.84883,24.038143,381.0,NaN,3.96,7.0,244.2,24 / 25,30019,2020-03-19 20:16:58:529
1.838747,-14.623784,-9.26556,0.0,49.84883,24.038143,381.0,NaN,3.96,7.0,244.2,24 / 25,30519,2020-03-19 20:16:59:029
2.734178,-10.778696,-1.58975,0.0,49.84883,24.038143,381.0,NaN,3.96,7.0,244.2,24 / 25,31019,2020-03-19 20:16:59:529
-1.910573,-2.580949,0.110133,0.0,49.84883,24.038143,381.0,NaN,3.96,7.0,244.2,24 / 25,31519,2020-03-19 20:17:00:029
0.201113,-9.591172,-0.512359,0.0,49.84883,24.038143,381.0,NaN,3.96,7.0,244.2,24 / 25,32020,2020-03-19 20:17:00:530
-5.214571,-5.190629,-0.407014,0.0,49.84883,24.038143,381.0,NaN,3.96,7.0,244.2,24 / 25,32520,2020-03-19 20:17:01:030
-0.972046,-9.931149,-1.134852,0.0,49.84883,24.038143,381.0,NaN,3.96,7.0,244.2,24 / 25,33020,2020-03-19 20:17:01:530
0.02873,-11.865664,-4.084508,0.0,49.84883,24.038143,381.0,NaN,3.96,7.0,244.2,24 / 25,33520,2020-03-19 20:17:02:030
-1.278504,-14.398729,-0.861913,0.0,49.84883,24.038143,381.0,NaN,3.96,7.0,244.2,24 / 25,34020,2020-03-19 20:17:02:530
-2.700659,-17.391481,-4.49631,0.0,49.84883,24.038143,381.0,NaN,3.96,7.0,244.2,24 / 25,34520,2020-03-19 20:17:03:030
3.294422,-4.343082,-4.76925,0.0,49.84883,24.038143,381.0,NaN,3.96,7.0,244.2,24 / 25,35020,2020-03-19 20:17:03:530
1.144428,-6.655881,0.316035,0.0,49.84883,24.038143,381.0,NaN,3.96,7.0,244.2,24 / 25,35520,2020-03-19 20:17:04:030
2.006341,-7.900865,-6.291962,0.0,49.84883,24.038143,381.0,NaN,3.96,7.0,244.2,24 / 25,36020,2020-03-19 20:17:04:530
-0.952892,-8.240842,-1.541866,0.0,49.84883,24.038143,381.0,NaN,3.96,7.0,244.2,24 / 25,36520,2020-03-19 20:17:05:030
-3.576937,-13.977349,-4.520252,0.0,49.84883,24.038143,381.0,NaN,3.96,7.0,244.2,24 / 25,37019,2020-03-19 20:17:05:529
-1.934515,-12.871228,-2.935291,0.0,49.84883,24.038143,381.0,NaN,3.96,7.0,244.2,24 / 25,37520,2020-03-19 20:17:06:030
3.131616,-9.868899,0.933739,0.0,49.84883,24.038143,381.0,NaN,3.96,7.0,244.2,24 / 25,38020,2020-03-19 20:17:06:530
5.679047,-8.360553,-6.727707,0.0,49.84883,24.038143,381.0,NaN,3.96,7.0,244.2,24 / 25,38520,2020-03-19 20:17:07:030
2.274492,-10.218452,0.857124,0.0,49.84883,24.038143,381.0,NaN,3.96,7.0,244.2,24 / 25,39019,2020-03-19 20:17:07:529
0.794875,-5.305551,-1.848324,0.0,49.84883,24.038143,381.0,NaN,3.96,7.0,244.2,24 / 25,39519,2020-03-19 20:17:08:029
0.857124,-9.907207,-1.029507,0.0,49.84883,24.038143,381.0,NaN,3.96,7.0,244.2,24 / 25,40019,2020-03-19 20:17:08:529
0.885855,-14.384364,2.403779,0.0,49.84883,24.038143,381.0,NaN,3.96,7.0,244.2,24 / 25,40519,2020-03-19 20:17:09:029
1.407791,-5.621585,-3.983951,0.0,49.84883,24.038143,381.0,NaN,3.96,7.0,244.2,24 / 25,41020,2020-03-19 20:17:09:530
-1.201889,-14.614207,0.976834,0.0,49.84883,24.038143,381.0,NaN,3.96,7.0,244.2,24 / 25,41519,2020-03-19 20:17:10:029
2.920926,-4.204218,-5.463568,0.0,49.84883,24.038143,381.0,NaN,3.96,7.0,244.2,24 / 25,42020,2020-03-19 20:17:10:530
0.201113,-7.091625,-0.416591,0.0,49.84883,24.038143,381.0,NaN,3.96,7.0,244.2,24 / 25,42519,2020-03-19 20:17:11:029
1.982399,-5.204994,-5.746084,0.0,49.84883,24.038143,381.0,NaN,3.96,7.0,244.2,24 / 25,43020,2020-03-19 20:17:11:530
0.885855,-8.106766,-2.858677,0.0,49.84883,24.038143,381.0,NaN,3.96,7.0,244.2,24 / 25,43519,2020-03-19 20:17:12:029
-0.943315,-3.394978,-1.556231,0.0,49.84883,24.038143,381.0,NaN,3.96,7.0,244.2,24 / 25,44019,2020-03-19 20:17:12:529
-3.385401,-6.526593,-1.024718,0.0,49.84883,24.038143,381.0,NaN,3.96,7.0,244.2,24 / 25,44519,2020-03-19 20:17:13:029
-2.585738,-11.93749,-0.067038,0.0,49.84883,24.038143,381.0,NaN,3.96,7.0,244.2,24 / 25,45019,2020-03-19 20:17:13:529
5.693412,-12.148179,-6.756437,0.0,49.84883,24.038143,381.0,NaN,3.96,7.0,244.2,0 / 0,45519,2020-03-19 20:17:14:029
-2.480393,-16.97968,0.215478,0.0,49.84883,24.038143,381.0,NaN,3.96,7.0,244.2,0 / 0,46019,2020-03-19 20:17:14:529
5.176265,-3.711012,-3.366248,0.0,49.84883,24.038143,381.0,NaN,3.96,7.0,244.2,0 / 4,46519,2020-03-19 20:17:15:029
-0.196325,-8.475474,-0.21069,0.0,49.84883,24.038143,381.0,NaN,3.96,7.0,244.2,0 / 4,47019,2020-03-19 20:17:15:529
-1.158794,-7.144298,0.684742,0.0,49.84883,24.038143,381.0,NaN,3.96,7.0,244.2,0 / 7,47519,2020-03-19 20:17:16:029
1.130063,-9.811439,0.311246,0.0,49.84883,24.038143,381.0,NaN,3.96,7.0,244.2,0 / 7,48019,2020-03-19 20:17:16:529
-0.263362,-4.362235,-1.94888,0.0,49.848667,24.037304,386.0,NaN,1.836,7.5,78.7,19 / 19,48519,2020-03-19 20:17:17:029
-2.025495,-7.64708,-0.402226,0.0,49.848667,24.037304,386.0,NaN,1.836,7.5,78.7,19 / 19,49019,2020-03-19 20:17:17:529
0.363919,-13.64695,-1.043872,0.0,49.848667,24.037304,386.0,NaN,1.836,7.5,78.7,19 / 19,49520,2020-03-19 20:17:18:030
2.236184,-4.007893,-3.854665,0.0,49.848667,24.037304,386.0,NaN,1.836,7.5,78.7,19 / 19,50020,2020-03-19 20:17:18:530
1.460463,-13.077129,0.02873,0.0,49.848667,24.037304,386.0,NaN,1.836,7.5,78.7,19 / 19,50520,2020-03-19 20:17:19:030
1.771709,-5.099649,-2.983175,0.0,49.848667,24.037304,386.0,NaN,1.836,7.5,78.7,19 / 19,51019,2020-03-19 20:17:19:529
0.90022,-8.90643,-0.397437,0.0,49.848667,24.037304,386.0,NaN,1.836,7.5,78.7,19 / 19,51520,2020-03-19 20:17:20:030
-1.795651,-4.91769,-1.206678,0.0,49.848667,24.037304,386.0,NaN,1.836,7.5,78.7,19 / 19,52020,2020-03-19 20:17:20:530
-3.548207,-6.584054,-2.360683,0.0,49.848667,24.037304,386.0,NaN,1.836,7.5,78.7,19 / 19,52520,2020-03-19 20:17:21:030
0.033519,-13.642161,-0.919373,0.0,49.848667,24.037304,386.0,NaN,1.836,7.5,78.7,19 / 19,53020,2020-03-19 20:17:21:530
-1.905785,-5.114014,-1.359906,0.0,49.848667,24.037304,386.0,NaN,1.836,7.5,78.7,19 / 19,53520,2020-03-19 20:17:22:030
0.588974,-13.120225,0.043096,0.0,49.848667,24.037304,386.0,NaN,1.836,7.5,78.7,19 / 19,54019,2020-03-19 20:17:22:529
1.733402,-4.429273,-0.521936,0.0,49.848667,24.037304,386.0,NaN,1.836,7.5,78.7,19 / 19,54520,2020-03-19 20:17:23:030
-0.632069,-13.445837,-0.282516,0.0,49.848667,24.037304,386.0,NaN,1.836,7.5,78.7,19 / 19,55019,2020-03-19 20:17:23:529
1.091756,-2.533065,-2.8491,0.0,49.848667,24.037304,386.0,NaN,1.836,7.5,78.7,19 / 19,55519,2020-03-19 20:17:24:029
1.264139,-8.283937,-1.010353,0.0,49.848667,24.037304,386.0,NaN,1.836,7.5,78.7,19 / 19,56019,2020-03-19 20:17:24:529
-5.099649,-12.425907,2.149993,0.0,49.848667,24.037304,386.0,NaN,1.836,7.5,78.7,19 / 19,56519,2020-03-19 20:17:25:029
0.110133,-14.360422,-2.020706,0.0,49.848667,24.037304,386.0,NaN,1.836,7.5,78.7,19 / 19,57020,2020-03-19 20:17:25:530
2.154782,-10.539276,-2.245761,0.0,49.848667,24.037304,386.0,NaN,1.836,7.5,78.7,19 / 19,57520,2020-03-19 20:17:26:030
-3.940856,-10.070012,1.642422,0.0,49.848667,24.037304,386.0,NaN,1.836,7.5,78.7,19 / 19,58020,2020-03-19 20:17:26:530
-3.643975,-16.97968,-0.823605,0.0,49.848667,24.037304,386.0,NaN,1.836,7.5,78.7,19 / 19,58520,2020-03-19 20:17:27:030
4.951209,-5.540182,-6.253655,0.0,49.848667,24.037304,386.0,NaN,1.836,7.5,78.7,19 / 19,59019,2020-03-19 20:17:27:529
3.964798,-12.794614,0.306458,0.0,49.848667,24.037304,386.0,NaN,1.836,7.5,78.7,19 / 19,59519,2020-03-19 20:17:28:029
-0.751779,-2.614468,-1.412579,0.0,49.848667,24.037304,386.0,NaN,1.836,7.5,78.7,19 / 19,60019,2020-03-19 20:17:28:529
1.685518,-7.225701,-0.952892,0.0,49.848667,24.037304,386.0,NaN,1.836,7.5,78.7,19 / 19,60519,2020-03-19 20:17:29:029
3.725378,-7.431602,-2.700659,0.0,49.848667,24.037304,386.0,NaN,1.836,7.5,78.7,19 / 19,61019,2020-03-19 20:17:29:529
2.782062,-18.607735,-1.675941,0.0,49.848667,24.037304,386.0,NaN,1.836,7.5,78.7,19 / 19,61519,2020-03-19 20:17:30:029
-2.695871,-11.525687,2.576161,0.0,49.848667,24.037304,386.0,NaN,1.836,7.5,78.7,19 / 19,62019,2020-03-19 20:17:30:529
-1.944092,-0.976834,7.704541,0.0,49.848667,24.037304,386.0,NaN,1.836,7.5,78.7,19 / 19,62519,2020-03-19 20:17:31:029
0.430956,-11.626244,-0.612916,0.0,49.848667,24.037304,386.0,NaN,1.836,7.5,78.7,19 / 19,63020,2020-03-19 20:17:31:530
7.038953,-6.368576,-9.069236,0.0,49.848667,24.037304,386.0,NaN,1.836,7.5,78.7,19 / 19,63519,2020-03-19 20:17:32:029
-0.90022,-8.561666,-0.579397,0.0,49.848667,24.037304,386.0,NaN,1.836,7.5,78.7,19 / 19,64020,2020-03-19 20:17:32:530
0.857124,-4.127603,-0.828394,0.0,49.848667,24.037304,386.0,NaN,1.836,7.5,78.7,19 / 19,64520,2020-03-19 20:17:33:030
-2.059013,-7.201759,-1.264138,0.0,49.848667,24.037304,386.0,NaN,1.836,7.5,78.7,19 / 19,65019,2020-03-19 20:17:33:529
-0.976834,-14.03481,0.670377,0.0,49.848667,24.037304,386.0,NaN,1.836,7.5,78.7,19 / 19,65519,2020-03-19 20:17:34:029
-2.657564,-7.915231,-2.466028,0.0,49.848667,24.037304,386.0,NaN,1.836,7.5,78.7,19 / 19,66019,2020-03-19 20:17:34:529
-0.143652,-13.283031,-1.403002,0.0,49.848667,24.037304,386.0,NaN,1.836,7.5,78.7,19 / 19,66519,2020-03-19 20:17:35:029
5.597644,-7.206547,-6.38773,0.0,49.848667,24.037304,386.0,NaN,1.836,7.5,78.7,19 / 19,67019,2020-03-19 20:17:35:529
-0.6608,-13.929465,0.153229,0.0,49.848667,24.037304,386.0,NaN,1.836,7.5,78.7,19 / 19,67519,2020-03-19 20:17:36:029
0.54109,-3.126827,-6.282385,0.0,49.848667,24.037304,386.0,NaN,1.836,7.5,78.7,19 / 19,68019,2020-03-19 20:17:36:529
1.522712,-8.39886,-0.646434,0.0,49.848667,24.037304,386.0,NaN,1.836,7.5,78.7,19 / 19,68520,2020-03-19 20:17:37:030
-3.763685,-12.172121,-0.038307,0.0,49.848667,24.037304,386.0,NaN,1.836,7.5,78.7,19 / 19,69020,2020-03-19 20:17:37:530
-0.526724,-18.636465,-16.089035,0.0,49.848667,24.037304,386.0,NaN,1.836,7.5,78.7,19 / 19,69519,2020-03-19 20:17:38:029
-4.836287,-13.297397,-3.873818,0.0,49.848667,24.037304,386.0,NaN,1.836,7.5,78.7,19 / 19,70019,2020-03-19 20:17:38:529
2.667141,-6.406883,-4.34787,0.0,49.848667,24.037304,386.0,NaN,1.836,7.5,78.7,19 / 19,70519,2020-03-19 20:17:39:029
0.574608,-8.264784,-0.306458,0.0,49.848667,24.037304,386.0,NaN,1.836,7.5,78.7,19 / 19,71019,2020-03-19 20:17:39:529
-0.023942,-6.469133,-2.408567,0.0,49.848667,24.037304,386.0,NaN,1.836,7.5,78.7,19 / 19,71519,2020-03-19 20:17:40:029
0.023942,-8.293514,-0.421379,0.0,49.848667,24.037304,386.0,NaN,1.836,7.5,78.7,19 / 19,72020,2020-03-19 20:17:40:530
-6.311115,-15.35641,-3.993528,0.0,49.848667,24.037304,386.0,NaN,1.836,7.5,78.7,19 / 19,72520,2020-03-19 20:17:41:030
-3.404555,-12.090718,-18.272547,0.0,49.848667,24.037304,386.0,NaN,1.836,7.5,78.7,19 / 19,73019,2020-03-19 20:17:41:529
2.1883,-12.272678,-2.446874,0.0,49.848667,24.037304,386.0,NaN,1.836,7.5,78.7,19 / 19,73520,2020-03-19 20:17:42:030
9.864111,-38.829163,-12.670115,0.0,49.848667,24.037304,386.0,NaN,1.836,7.5,78.7,19 / 19,74020,2020-03-19 20:17:42:530
3.744532,-11.013328,-1.25935,0.0,49.848667,24.037304,386.0,NaN,1.836,7.5,78.7,19 / 19,74520,2020-03-19 20:17:43:030
-0.081403,-6.330269,-1.403002,0.0,49.848667,24.037304,386.0,NaN,1.836,7.5,78.7,19 / 19,75020,2020-03-19 20:17:43:530
-6.62715,-8.42759,1.25935,0.0,49.848667,24.037304,386.0,NaN,1.836,7.5,78.7,19 / 19,75520,2020-03-19 20:17:44:030
-0.632069,-18.789696,-1.446098,0.0,49.848667,24.037304,386.0,NaN,1.836,7.5,78.7,19 / 19,76020,2020-03-19 20:17:44:530
1.781286,-14.446613,-11.066,0.0,49.848667,24.037304,386.0,NaN,1.836,7.5,78.7,19 / 19,76520,2020-03-19 20:17:45:030
2.312799,-12.138602,-0.181959,0.0,49.848667,24.037304,386.0,NaN,1.836,7.5,78.7,19 / 19,77019,2020-03-19 20:17:45:529
1.61848,-4.707,-1.628057,0.0,49.848667,24.037304,386.0,NaN,1.836,7.5,78.7,19 / 19,77519,2020-03-19 20:17:46:029
0.426168,-9.787497,-0.430956,0.0,49.848667,24.037304,386.0,NaN,1.836,7.5,78.7,19 / 19,78019,2020-03-19 20:17:46:529
1.489194,-6.53617,1.034295,0.0,49.848667,24.037304,386.0,NaN,1.836,7.5,78.7,19 / 19,78519,2020-03-19 20:17:47:029
-2.226607,-7.594407,-1.733402,0.0,49.848667,24.037304,386.0,NaN,1.836,7.5,78.7,19 / 19,79019,2020-03-19 20:17:47:529
0.076614,-12.828133,0.062249,0.0,49.848667,24.037304,386.0,NaN,1.836,7.5,78.7,19 / 19,79519,2020-03-19 20:17:48:029
13.94383,-31.37362,-12.717999,0.0,49.848667,24.037304,386.0,NaN,1.836,7.5,78.7,19 / 19,80019,2020-03-19 20:17:48:529
-0.086191,-12.368446,0.397437,0.0,49.848667,24.037304,386.0,NaN,1.836,7.5,78.7,19 / 19,80520,2020-03-19 20:17:49:030
-0.354342,-2.394202,-0.363919,0.0,49.848667,24.037304,386.0,NaN,1.836,7.5,78.7,19 / 19,81020,2020-03-19 20:17:49:530
0.684742,-7.182605,-0.675165,0.0,49.848667,24.037304,386.0,NaN,1.836,7.5,78.7,19 / 19,81519,2020-03-19 20:17:50:029
0.593762,-7.987056,-4.491522,0.0,49.848667,24.037304,386.0,NaN,1.836,7.5,78.7,19 / 19,82019,2020-03-19 20:17:50:529
-0.833182,-7.19697,-1.608903,0.0,49.848667,24.037304,386.0,NaN,1.836,7.5,78.7,19 / 19,82519,2020-03-19 20:17:51:029
-1.781286,-11.7268,-2.365471,0.0,49.848667,24.037304,386.0,NaN,1.836,7.5,78.7,19 / 19,83019,2020-03-19 20:17:51:529
6.248867,-7.307103,-10.472239,0.0,49.848667,24.037304,386.0,NaN,1.836,7.5,78.7,19 / 19,83519,2020-03-19 20:17:52:029
0.560243,-8.207323,-0.009577,0.0,49.848667,24.037304,386.0,NaN,1.836,7.5,78.7,19 / 19,84019,2020-03-19 20:17:52:529
0.905008,-4.410119,-3.433285,0.0,49.848667,24.037304,386.0,NaN,1.836,7.5,78.7,19 / 19,84519,2020-03-19 20:17:53:029
0.737414,-8.734048,-0.143652,0.0,49.848667,24.037304,386.0,NaN,1.836,7.5,78.7,19 / 19,85020,2020-03-19 20:17:53:530
6.627151,-13.824121,-1.04866,0.0,49.848667,24.037304,386.0,NaN,1.836,7.5,78.7,19 / 19,85520,2020-03-19 20:17:54:030
-0.804452,-1.029507,4.568137,0.0,49.848667,24.037304,386.0,NaN,1.836,7.5,78.7,19 / 19,86019,2020-03-19 20:17:54:529
-0.09098,-11.377247,-1.58975,0.0,49.848667,24.037304,386.0,NaN,1.836,7.5,78.7,19 / 19,86519,2020-03-19 20:17:55:029
-0.023942,-3.069367,-1.426944,0.0,49.848667,24.037304,386.0,NaN,1.836,7.5,78.7,19 / 19,87019,2020-03-19 20:17:55:529
0.474052,-6.895301,-0.316035,0.0,49.848667,24.037304,386.0,NaN,1.836,7.5,78.7,19 / 19,87519,2020-03-19 20:17:56:029
5.813122,-11.927913,-3.529053,0.0,49.848667,24.037304,386.0,NaN,1.836,7.5,78.7,19 / 19,88019,2020-03-19 20:17:56:529
-2.111686,-9.500193,2.087744,0.0,49.848667,24.037304,386.0,NaN,1.836,7.5,78.7,19 / 19,88519,2020-03-19 20:17:57:029
0.205901,-16.567875,1.273715,0.0,49.848667,24.037304,386.0,NaN,1.836,7.5,78.7,19 / 19,89019,2020-03-19 20:17:57:529
4.601656,-14.772224,0.723049,0.0,49.848667,24.037304,386.0,NaN,1.836,7.5,78.7,19 / 19,89520,2020-03-19 20:17:58:030
-5.544971,-15.456966,-3.198653,0.0,49.848667,24.037304,386.0,NaN,1.836,7.5,78.7,19 / 19,90020,2020-03-19 20:17:58:530
4.812346,-6.464344,-4.754884,0.0,49.848667,24.037304,386.0,NaN,1.836,7.5,78.7,19 / 19,90520,2020-03-19 20:17:59:030
3.811569,-8.130708,0.205901,0.0,49.848667,24.037304,386.0,NaN,1.836,7.5,78.7,19 / 19,91020,2020-03-19 20:17:59:530
1.546654,-5.750872,-2.667141,0.0,49.848667,24.037304,386.0,NaN,1.836,7.5,78.7,19 / 19,91519,2020-03-19 20:18:00:029
-2.116474,-8.777143,-1.441309,0.0,49.848667,24.037304,386.0,NaN,1.836,7.5,78.7,19 / 19,92020,2020-03-19 20:18:00:530
-0.344765,-12.813767,-3.514688,0.0,49.848667,24.037304,386.0,NaN,1.836,7.5,78.7,19 / 19,92520,2020-03-19 20:18:01:030
-1.604115,-7.85777,-1.254562,0.0,49.848667,24.037304,386.0,NaN,1.836,7.5,78.7,19 / 19,93020,2020-03-19 20:18:01:530
2.135628,-10.644621,-0.723049,0.0,49.848667,24.037304,386.0,NaN,1.836,7.5,78.7,19 / 19,93519,2020-03-19 20:18:02:029
4.764462,-4.984728,-1.254562,0.0,49.848667,24.037304,386.0,NaN,1.836,7.5,78.7,19 / 19,94020,2020-03-19 20:18:02:530
-0.225055,-7.651869,1.714248,0.0,49.848667,24.037304,386.0,NaN,1.836,7.5,78.7,19 / 19,94520,2020-03-19 20:18:03:030
-0.56982,-2.82037,-2.011129,0.0,49.848667,24.037304,386.0,NaN,1.836,7.5,78.7,19 / 19,95019,2020-03-19 20:18:03:529
-1.240196,-7.718906,-0.229843,0.0,49.848667,24.037304,386.0,NaN,1.836,7.5,78.7,19 / 19,95519,2020-03-19 20:18:04:029
-1.810016,-1.565808,-0.636858,0.0,49.848667,24.037304,386.0,NaN,1.836,7.5,78.7,19 / 19,96019,2020-03-19 20:18:04:529
-5.415684,-5.66947,-1.211466,0.0,49.848667,24.037304,386.0,NaN,1.836,7.5,78.7,19 / 19,96519,2020-03-19 20:18:05:029
0.268151,-14.54717,1.173159,0.0,49.848667,24.037304,386.0,NaN,1.836,7.5,78.7,0 / 1,97019,2020-03-19 20:18:05:529
-0.574608,-2.810793,0.47884,0.0,49.848667,24.037304,386.0,NaN,1.836,7.5,78.7,0 / 1,97520,2020-03-19 20:18:06:030
-1.541866,-17.03235,1.551443,0.0,49.848667,24.037304,386.0,NaN,1.836,7.5,78.7,0 / 4,98019,2020-03-19 20:18:06:529
1.268927,-4.189853,-3.303998,0.0,49.848667,24.037304,386.0,NaN,1.836,7.5,78.7,0 / 4,98520,2020-03-19 20:18:07:030
-2.207454,-8.561666,0.339977,0.0,49.848667,24.037304,386.0,NaN,1.836,7.5,78.7,21 / 21,99019,2020-03-19 20:18:07:529
-1.944092,-7.062895,-1.719037,0.0,49.848667,24.037304,386.0,NaN,1.836,7.5,78.7,21 / 21,99519,2020-03-19 20:18:08:029
1.144428,-8.882488,-0.234632,0.0,49.848667,24.037304,386.0,NaN,1.836,7.5,78.7,21 / 21,100020,2020-03-19 20:18:08:530
-7.905654,-17.118542,0.986411,0.0,49.848667,24.037304,386.0,NaN,1.836,7.5,78.7,21 / 21,100519,2020-03-19 20:18:09:029
-3.39019,-4.49631,1.867477,0.0,49.848667,24.037304,386.0,NaN,1.836,7.5,78.7,21 / 21,101020,2020-03-19 20:18:09:530
-3.246537,-17.223886,0.263362,0.0,49.848667,24.037304,386.0,NaN,1.836,7.5,78.7,21 / 21,101520,2020-03-19 20:18:10:030
1.968034,-3.371036,0.114922,0.0,49.848667,24.037304,386.0,NaN,1.836,7.5,78.7,21 / 21,102020,2020-03-19 20:18:10:530
1.575385,-12.828133,-2.791639,0.0,49.848667,24.037304,386.0,NaN,1.836,7.5,78.7,21 / 21,102520,2020-03-19 20:18:11:030
0.263362,-3.926491,-1.412579,0.0,49.848667,24.037304,386.0,NaN,1.836,7.5,78.7,21 / 21,103020,2020-03-19 20:18:11:530
-3.983951,-7.790732,-1.517924,0.0,49.848667,24.037304,386.0,NaN,1.836,7.5,78.7,21 / 21,103520,2020-03-19 20:18:12:030
0.42138,-3.39019,-1.149217,0.0,49.848667,24.037304,386.0,NaN,1.836,7.5,78.7,21 / 21,104020,2020-03-19 20:18:12:530
-5.080496,-6.196194,-0.579397,0.0,49.848667,24.037304,386.0,NaN,1.836,7.5,78.7,21 / 21,104519,2020-03-19 20:18:13:029
-5.329493,-11.918336,-2.724601,0.0,49.848667,24.037304,386.0,NaN,1.836,7.5,78.7,21 / 21,105020,2020-03-19 20:18:13:530
1.268927,-11.219229,-2.30801,0.0,49.848667,24.037304,386.0,NaN,1.836,7.5,78.7,21 / 21,105520,2020-03-19 20:18:14:030
-0.612916,-11.611878,-0.914585,0.0,49.848667,24.037304,386.0,NaN,1.836,7.5,78.7,21 / 21,106019,2020-03-19 20:18:14:529
2.557007,-5.310339,-5.894524,0.0,49.848667,24.037304,386.0,NaN,1.836,7.5,78.7,21 / 21,106519,2020-03-19 20:18:15:029
-1.881842,-9.370906,-0.948104,0.0,49.848667,24.037304,386.0,NaN,1.836,7.5,78.7,21 / 21,107019,2020-03-19 20:18:15:529
-4.386177,-3.294421,-0.914585,0.0,49.848667,24.037304,386.0,NaN,1.836,7.5,78.7,21 / 21,107519,2020-03-19 20:18:16:029
0.588974,-10.611102,-0.368707,0.0,49.848667,24.037304,386.0,NaN,1.836,7.5,78.7,21 / 21,108020,2020-03-19 20:18:16:530
-2.461239,-5.597643,-1.101333,0.0,49.848667,24.037304,386.0,NaN,1.836,7.5,78.7,21 / 21,108520,2020-03-19 20:18:17:030
-4.031835,-7.230489,-1.651999,0.0,49.848667,24.037304,386.0,NaN,1.836,7.5,78.7,21 / 21,109020,2020-03-19 20:18:17:530
0.038307,-17.013197,0.593762,0.0,49.848667,24.037304,386.0,NaN,1.836,7.5,78.7,21 / 21,109520,2020-03-19 20:18:18:030
-2.949656,-10.845734,-1.163582,0.0,49.848667,24.037304,386.0,NaN,1.836,7.5,78.7,21 / 21,110019,2020-03-19 20:18:18:529
-8.025364,-17.81765,-5.094861,0.0,49.848667,24.037304,386.0,NaN,1.836,7.5,78.7,21 / 21,110519,2020-03-19 20:18:19:029
1.991976,-4.165911,-7.829039,0.0,49.848667,24.037304,386.0,NaN,1.836,7.5,78.7,21 / 21,111019,2020-03-19 20:18:19:529
-2.06859,-9.744401,-0.632069,0.0,49.848667,24.037304,386.0,NaN,1.836,7.5,78.7,21 / 21,111519,2020-03-19 20:18:20:029
-2.858677,-2.96881,-0.732626,0.0,49.848667,24.037304,386.0,NaN,1.836,7.5,78.7,21 / 21,112019,2020-03-19 20:18:20:529
-3.189077,-9.404425,-1.594538,0.0,49.848667,24.037304,386.0,NaN,1.836,7.5,78.7,21 / 21,112519,2020-03-19 20:18:21:029
-6.722918,-13.872005,-1.666364,0.0,49.848667,24.037304,386.0,NaN,1.836,7.5,78.7,21 / 21,113019,2020-03-19 20:18:21:529
-5.511452,-34.557907,-8.192958,0.0,49.848667,24.037304,386.0,NaN,1.836,7.5,78.7,21 / 21,113519,2020-03-19 20:18:22:029
-0.474052,-13.101071,-1.886631,0.0,49.848667,24.037304,386.0,NaN,1.836,7.5,78.7,21 / 21,114019,2020-03-19 20:18:22:529
-1.49877,-1.867477,-1.187524,0.0,49.848667,24.037304,386.0,NaN,1.836,7.5,78.7,21 / 21,114520,2020-03-19 20:18:23:030
-1.403002,-7.211335,-0.407014,0.0,49.848667,24.037304,386.0,NaN,1.836,7.5,78.7,21 / 21,115020,2020-03-19 20:18:23:530
-0.416591,-3.007117,0.493206,0.0,49.848667,24.037304,386.0,NaN,1.836,7.5,78.7,21 / 21,115519,2020-03-19 20:18:24:029
-1.321599,-16.548721,-3.050213,0.0,49.848667,24.037304,386.0,NaN,1.836,7.5,78.7,21 / 21,116019,2020-03-19 20:18:24:529
-8.183381,-11.990162,-1.522712,0.0,49.848667,24.037304,386.0,NaN,1.836,7.5,78.7,21 / 21,116519,2020-03-19 20:18:25:029
-4.812345,-30.104692,-19.244593,0.0,49.848667,24.037304,386.0,NaN,1.836,7.5,78.7,21 / 21,117019,2020-03-19 20:18:25:529
-1.431733,-12.512098,-0.636858,0.0,49.848667,24.037304,386.0,NaN,1.836,7.5,78.7,21 / 21,117519,2020-03-19 20:18:26:029
-0.555455,-3.768473,-2.418144,0.0,49.848667,24.037304,386.0,NaN,1.836,7.5,78.7,21 / 21,118020,2020-03-19 20:18:26:530
-2.197877,-6.497863,-0.622492,0.0,49.848667,24.037304,386.0,NaN,1.836,7.5,78.7,21 / 21,118519,2020-03-19 20:18:27:029
6.33027,-13.790602,-2.245761,0.0,49.848667,24.037304,386.0,NaN,1.836,7.5,78.7,21 / 21,119020,2020-03-19 20:18:27:530
-9.821015,-22.242134,-0.727837,0.0,49.848667,24.037304,386.0,NaN,1.836,7.5,78.7,21 / 21,119520,2020-03-19 20:18:28:030
0.148441,-14.81532,-1.647211,0.0,49.848667,24.037304,386.0,NaN,1.836,7.5,78.7,21 / 21,120020,2020-03-19 20:18:28:530
2.082955,-5.477933,-8.355764,0.0,49.848667,24.037304,386.0,NaN,1.836,7.5,78.7,21 / 21,120519,2020-03-19 20:18:29:029
-1.742979,-8.868123,-1.608903,0.0,49.848667,24.037304,386.0,NaN,1.836,7.5,78.7,21 / 21,121020,2020-03-19 20:18:29:530
-2.456451,-2.743755,-0.588974,0.0,49.848667,24.037304,386.0,NaN,1.836,7.5,78.7,21 / 21,121519,2020-03-19 20:18:30:029
-6.555324,-9.016563,-1.35033,0.0,49.848667,24.037304,386.0,NaN,1.836,7.5,78.7,21 / 21,122020,2020-03-19 20:18:30:530
-1.460463,-3.816357,0.42138,0.0,49.848667,24.037304,386.0,NaN,1.836,7.5,78.7,21 / 21,122519,2020-03-19 20:18:31:029
-2.892196,-9.65821,-1.130063,0.0,49.848667,24.037304,386.0,NaN,1.836,7.5,78.7,21 / 21,123019,2020-03-19 20:18:31:529
-3.830723,-14.437037,-0.756568,0.0,49.848667,24.037304,386.0,NaN,1.836,7.5,78.7,21 / 21,123520,2020-03-19 20:18:32:030
-3.347094,2.786851,1.527501,0.0,49.848667,24.037304,386.0,NaN,1.836,7.5,78.7,21 / 21,124020,2020-03-19 20:18:32:530
-7.637503,-17.343597,-0.497994,0.0,49.848667,24.037304,386.0,NaN,1.836,7.5,78.7,21 / 21,124519,2020-03-19 20:18:33:029
2.470816,-3.002329,-3.332729,0.0,49.848667,24.037304,386.0,NaN,1.836,7.5,78.7,21 / 21,125020,2020-03-19 20:18:33:530
1.283292,-12.229582,-1.441309,0.0,49.848667,24.037304,386.0,NaN,1.836,7.5,78.7,21 / 21,125520,2020-03-19 20:18:34:030
-1.541866,-1.383848,-1.312023,0.0,49.848667,24.037304,386.0,NaN,1.836,7.5,78.7,21 / 21,126020,2020-03-19 20:18:34:530
-1.49877,-12.320562,-1.393425,0.0,49.848667,24.037304,386.0,NaN,1.836,7.5,78.7,21 / 21,126519,2020-03-19 20:18:35:029
-1.70946,-1.254562,-2.149993,0.0,49.848667,24.037304,386.0,NaN,1.836,7.5,78.7,21 / 21,127019,2020-03-19 20:18:35:529
0.191536,-8.987833,0.555455,0.0,49.848667,24.037304,386.0,NaN,1.836,7.5,78.7,21 / 21,127519,2020-03-19 20:18:36:029
-0.272939,-12.904747,-3.557784,0.0,49.848667,24.037304,386.0,NaN,1.836,7.5,78.7,21 / 21,128019,2020-03-19 20:18:36:529
0.737414,-25.024197,-7.038953,0.0,49.848667,24.037304,386.0,NaN,1.836,7.5,78.7,21 / 21,128519,2020-03-19 20:18:37:029
-6.622362,-12.440272,-3.596091,0.0,49.848667,24.037304,386.0,NaN,1.836,7.5,78.7,21 / 21,129019,2020-03-19 20:18:37:529
0.790087,-3.509899,-5.521029,0.0,49.848667,24.037304,386.0,NaN,1.836,7.5,78.7,21 / 21,129520,2020-03-19 20:18:38:030
-0.158017,-10.941502,-2.011129,0.0,49.848667,24.037304,386.0,NaN,1.836,7.5,78.7,21 / 21,130019,2020-03-19 20:18:38:529
-0.54109,-3.591303,0.703895,0.0,49.848667,24.037304,386.0,NaN,1.836,7.5,78.7,21 / 21,130519,2020-03-19 20:18:39:029
-3.581726,-11.45865,-1.561019,0.0,49.848667,24.037304,386.0,NaN,1.836,7.5,78.7,21 / 21,131020,2020-03-19 20:18:39:530
-1.82917,-2.796427,-1.307234,0.0,49.848667,24.037304,386.0,NaN,1.836,7.5,78.7,21 / 21,131519,2020-03-19 20:18:40:029
-3.921702,-7.101202,-1.446098,0.0,49.848667,24.037304,386.0,NaN,1.836,7.5,78.7,21 / 21,132019,2020-03-19 20:18:40:529
-5.770026,-11.774684,-5.803545,0.0,49.848667,24.037304,386.0,NaN,1.836,7.5,78.7,21 / 21,132519,2020-03-19 20:18:41:029
-2.691083,-7.752425,-0.220267,0.0,49.848667,24.037304,386.0,NaN,1.836,7.5,78.7,21 / 21,133020,2020-03-19 20:18:41:530
0.177171,-13.991714,0.512359,0.0,49.848667,24.037304,386.0,NaN,1.836,7.5,78.7,21 / 21,133519,2020-03-19 20:18:42:029
0.019154,-4.299986,-8.690952,0.0,49.848667,24.037304,386.0,NaN,1.836,7.5,78.7,21 / 21,134019,2020-03-19 20:18:42:529
-1.819593,-10.927136,-1.455675,0.0,49.848667,24.037304,386.0,NaN,1.836,7.5,78.7,21 / 21,134520,2020-03-19 20:18:43:030
0.229843,-2.566584,-4.539406,0.0,49.848667,24.037304,386.0,NaN,1.836,7.5,78.7,21 / 21,135020,2020-03-19 20:18:43:530
-2.025495,-8.078036,-0.464475,0.0,49.848667,24.037304,386.0,NaN,1.836,7.5,78.7,21 / 21,135519,2020-03-19 20:18:44:029
-1.695095,-2.48997,1.11091,0.0,49.848667,24.037304,386.0,NaN,1.836,7.5,78.7,21 / 21,136019,2020-03-19 20:18:44:529
-2.494758,-7.867347,-0.665588,0.0,49.848667,24.037304,386.0,NaN,1.836,7.5,78.7,21 / 21,136519,2020-03-19 20:18:45:029
-4.10845,-9.32781,0.21069,0.0,49.848667,24.037304,386.0,NaN,1.836,7.5,78.7,21 / 21,137019,2020-03-19 20:18:45:529
-4.223372,-17.922995,-4.654328,0.0,49.848667,24.037304,386.0,NaN,1.836,7.5,78.7,21 / 21,137519,2020-03-19 20:18:46:029
-8.825027,-12.411542,-3.476381,0.0,49.848667,24.037304,386.0,NaN,1.836,7.5,78.7,21 / 21,138020,2020-03-19 20:18:46:530
-3.557784,-5.492298,-0.100556,0.0,49.848667,24.037304,386.0,NaN,1.836,7.5,78.7,21 / 21,138519,2020-03-19 20:18:47:029
-3.998317,-14.302961,-0.919373,0.0,49.848667,24.037304,386.0,NaN,1.836,7.5,78.7,21 / 21,139020,2020-03-19 20:18:47:530
-1.297657,-1.517924,-2.149993,0.0,49.848667,24.037304,386.0,NaN,1.836,7.5,78.7,21 / 21,139519,2020-03-19 20:18:48:029
-5.736507,-15.35641,-1.039083,0.0,49.848667,24.037304,386.0,NaN,1.836,7.5,78.7,21 / 21,140019,2020-03-19 20:18:48:529
1.024718,-3.825934,-3.1795,0.0,49.848667,24.037304,386.0,NaN,1.836,7.5,78.7,21 / 21,140520,2020-03-19 20:18:49:030
-1.94888,-14.389153,-3.08852,0.0,49.848667,24.037304,386.0,NaN,1.836,7.5,78.7,21 / 21,141019,2020-03-19 20:18:49:529
-3.203442,-1.072602,-0.071826,0.0,49.848667,24.037304,386.0,NaN,1.836,7.5,78.7,21 / 21,141519,2020-03-19 20:18:50:029
-6.842628,-6.809109,-1.934515,0.0,49.848667,24.037304,386.0,NaN,1.836,7.5,78.7,21 / 21,142019,2020-03-19 20:18:50:529
-4.984728,-8.633492,-2.906561,0.0,49.848667,24.037304,386.0,NaN,1.836,7.5,78.7,21 / 21,142519,2020-03-19 20:18:51:029
-2.911349,-8.556877,-1.848324,0.0,49.848667,24.037304,386.0,NaN,1.836,7.5,78.7,21 / 21,143020,2020-03-19 20:18:51:530
-3.002329,-13.148955,0.646435,0.0,49.848667,24.037304,386.0,NaN,1.836,7.5,78.7,21 / 21,143520,2020-03-19 20:18:52:030
-5.06613,-9.428367,0.732626,0.0,49.848667,24.037304,386.0,NaN,1.836,7.5,78.7,21 / 21,144019,2020-03-19 20:18:52:529
-8.614338,-15.021221,-1.436521,0.0,49.848667,24.037304,386.0,NaN,1.836,7.5,78.7,21 / 21,144519,2020-03-19 20:18:53:029
0.349553,-6.579266,-6.995857,0.0,49.848667,24.037304,386.0,NaN,1.836,7.5,78.7,21 / 21,145019,2020-03-19 20:18:53:529
-2.920926,-10.726024,-0.148441,0.0,49.848667,24.037304,386.0,NaN,1.836,7.5,78.7,21 / 21,145519,2020-03-19 20:18:54:029
-3.653552,-10.951078,-4.003105,0.0,49.848667,24.037304,386.0,NaN,1.836,7.5,78.7,21 / 21,146020,2020-03-19 20:18:54:530
-9.332599,-18.492813,-6.440402,0.0,49.848667,24.037304,386.0,NaN,1.836,7.5,78.7,21 / 21,146520,2020-03-19 20:18:55:030
-5.755661,-13.891158,1.273715,0.0,49.848667,24.037304,386.0,NaN,1.836,7.5,78.7,21 / 21,147019,2020-03-19 20:18:55:529
-7.19697,-11.358093,1.685518,0.0,49.848667,24.037304,386.0,NaN,1.836,7.5,78.7,21 / 21,147519,2020-03-19 20:18:56:029
-10.036493,-12.765883,-0.646434,0.0,49.848667,24.037304,386.0,NaN,1.836,7.5,78.7,21 / 21,148019,2020-03-19 20:18:56:529
-0.158017,-2.930503,-7.479486,0.0,49.848667,24.037304,386.0,NaN,1.836,7.5,78.7,21 / 21,148519,2020-03-19 20:18:57:029
-2.604891,-7.661445,-0.11971,0.0,49.848667,24.037304,386.0,NaN,1.836,7.5,78.7,21 / 21,149019,2020-03-19 20:18:57:529
-1.40779,-13.340492,-3.916914,0.0,49.848667,24.037304,386.0,NaN,1.836,7.5,78.7,21 / 21,149519,2020-03-19 20:18:58:029
-2.255338,-14.398729,-2.801216,0.0,49.848667,24.037304,386.0,NaN,1.836,7.5,78.7,21 / 21,150019,2020-03-19 20:18:58:529
-7.517793,-11.947066,-1.656788,0.0,49.848667,24.037304,386.0,NaN,1.836,7.5,78.7,21 / 21,150519,2020-03-19 20:18:59:029
-1.996764,1.393425,2.652776,0.0,49.848667,24.037304,386.0,NaN,1.836,7.5,78.7,21 / 21,151020,2020-03-19 20:18:59:530
-4.189853,-10.275913,1.130063,0.0,49.848667,24.037304,386.0,NaN,1.836,7.5,78.7,21 / 21,151519,2020-03-19 20:19:00:029
0.837971,-11.693281,-1.130063,0.0,49.848667,24.037304,386.0,NaN,1.836,7.5,78.7,21 / 21,152019,2020-03-19 20:19:00:529
-3.122039,-11.985373,-1.393425,0.0,49.848667,24.037304,386.0,NaN,1.836,7.5,78.7,21 / 21,152519,2020-03-19 20:19:01:029
-2.078167,-4.209007,-1.244985,0.0,49.848667,24.037304,386.0,NaN,1.836,7.5,78.7,21 / 21,153019,2020-03-19 20:19:01:529
-1.877054,-6.943185,-1.915361,0.0,49.848667,24.037304,386.0,NaN,1.836,7.5,78.7,21 / 21,153519,2020-03-19 20:19:02:029
-5.473145,-10.730812,-1.077391,0.0,49.848667,24.037304,386.0,NaN,1.836,7.5,78.7,21 / 21,154019,2020-03-19 20:19:02:529
2.987964,-5.018246,1.647211,0.0,49.848667,24.037304,386.0,NaN,1.836,7.5,78.7,21 / 21,154519,2020-03-19 20:19:03:029
0.675165,-11.60709,-2.662352,0.0,49.848667,24.037304,386.0,NaN,1.836,7.5,78.7,21 / 21,155019,2020-03-19 20:19:03:529
-1.278504,-2.700659,0.924162,0.0,49.848667,24.037304,386.0,NaN,1.836,7.5,78.7,21 / 21,155519,2020-03-19 20:19:04:029
-4.424484,-10.726024,-1.082179,0.0,49.848667,24.037304,386.0,NaN,1.836,7.5,78.7,21 / 21,156019,2020-03-19 20:19:04:529
0.646435,-0.641646,-1.04866,0.0,49.848667,24.037304,386.0,NaN,1.836,7.5,78.7,21 / 21,156520,2020-03-19 20:19:05:030
-1.623269,-6.603208,0.071826,0.0,49.848667,24.037304,386.0,NaN,1.836,7.5,78.7,21 / 21,157020,2020-03-19 20:19:05:530
-4.323928,-2.671929,3.485958,0.0,49.848667,24.037304,386.0,NaN,1.836,7.5,78.7,21 / 21,157520,2020-03-19 20:19:06:030
-5.228936,-3.557784,-0.038307,0.0,49.848667,24.037304,386.0,NaN,1.836,7.5,78.7,21 / 21,158019,2020-03-19 20:19:06:529
-3.08852,-14.130578,0.215478,0.0,49.848667,24.037304,386.0,NaN,1.836,7.5,78.7,21 / 21,158520,2020-03-19 20:19:07:030
-3.021482,-8.39886,1.312023,0.0,49.848667,24.037304,386.0,NaN,1.836,7.5,78.7,21 / 21,159019,2020-03-19 20:19:07:529
-11.238382,-12.018892,-2.762909,0.0,49.848667,24.037304,386.0,NaN,1.836,7.5,78.7,21 / 21,159519,2020-03-19 20:19:08:029
-0.488417,-9.356541,0.11971,0.0,49.848667,24.037304,386.0,NaN,1.836,7.5,78.7,21 / 21,160019,2020-03-19 20:19:08:529
-7.675811,-17.00362,-1.546654,0.0,49.848667,24.037304,386.0,NaN,1.836,7.5,78.7,21 / 21,160519,2020-03-19 20:19:09:029
-0.521936,0.708684,-5.051765,0.0,49.848667,24.037304,386.0,NaN,1.836,7.5,78.7,21 / 21,161019,2020-03-19 20:19:09:529
-3.715801,-5.645528,0.670377,0.0,49.848667,24.037304,386.0,NaN,1.836,7.5,78.7,21 / 21,161519,2020-03-19 20:19:10:029
-1.666364,-9.121908,-2.753332,0.0,49.848667,24.037304,386.0,NaN,1.836,7.5,78.7,21 / 21,162019,2020-03-19 20:19:10:529
-6.354211,-5.717354,-0.579397,0.0,49.848667,24.037304,386.0,NaN,1.836,7.5,78.7,21 / 21,162519,2020-03-19 20:19:11:029
-3.940856,-12.717999,5.971139,0.0,49.848667,24.037304,386.0,NaN,1.836,7.5,78.7,21 / 21,163020,2020-03-19 20:19:11:530
-1.240196,-10.414778,-1.173159,0.0,49.848667,24.037304,386.0,NaN,1.836,7.5,78.7,21 / 21,163519,2020-03-19 20:19:12:029
-10.228029,-14.465767,-1.867477,0.0,49.848667,24.037304,386.0,NaN,1.836,7.5,78.7,21 / 21,164019,2020-03-19 20:19:12:529
-1.043872,-13.603854,-3.600879,0.0,49.848667,24.037304,386.0,NaN,1.836,7.5,78.7,21 / 21,164519,2020-03-19 20:19:13:029
-6.411672,-11.836933,-3.883395,0.0,49.848667,24.037304,386.0,NaN,1.836,7.5,78.7,21 / 21,165019,2020-03-19 20:19:13:529
-10.070012,-15.049952,-13.517663,0.0,49.848667,24.037304,386.0,NaN,1.836,7.5,78.7,21 / 21,165519,2020-03-19 20:19:14:029
-7.929596,-12.253524,-0.263362,0.0,49.848667,24.037304,386.0,NaN,1.836,7.5,78.7,21 / 21,166019,2020-03-19 20:19:14:529
-1.929727,-2.806004,-1.795651,0.0,49.848667,24.037304,386.0,NaN,1.836,7.5,78.7,21 / 21,166519,2020-03-19 20:19:15:029
-4.458003,-6.780379,1.580173,0.0,49.848667,24.037304,386.0,NaN,1.836,7.5,78.7,21 / 21,167020,2020-03-19 20:19:15:530
-4.13718,-4.429273,-1.517924,0.0,49.848667,24.037304,386.0,NaN,1.836,7.5,78.7,21 / 21,167520,2020-03-19 20:19:16:030
1.82917,-9.313444,-0.3304,0.0,49.848667,24.037304,386.0,NaN,1.836,7.5,78.7,21 / 21,168020,2020-03-19 20:19:16:530
-7.350199,-12.670115,-1.460463,0.0,49.848667,24.037304,386.0,NaN,1.836,7.5,78.7,21 / 21,168520,2020-03-19 20:19:17:030
3.969586,-6.320692,9.255983,8.0,49.848667,24.037304,386.0,NaN,1.836,7.5,78.7,21 / 21,169019,2020-03-19 20:19:17:529
1.747767,2.920926,7.910443,8.0,49.848667,24.037304,386.0,NaN,1.836,7.5,78.7,21 / 21,169519,2020-03-19 20:19:18:029
2.75812,1.575385,8.896853,8.0,49.848667,24.037304,386.0,NaN,1.836,7.5,78.7,21 / 21,170019,2020-03-19 20:19:18:529
3.332729,2.576161,12.976573,8.0,49.848667,24.037304,386.0,NaN,1.836,7.5,78.7,21 / 21,170519,2020-03-19 20:19:19:029