ACCELEROMETER X (m/s²),ACCELEROMETER Y (m/s²),ACCELEROMETER Z (m/s²),PROXIMITY (m),LOCATION Latitude : ,LOCATION Longitude : ,LOCATION Altitude ( m),LOCATION Altitude-google ( m),LOCATION Speed ( Kmh),LOCATION Accuracy ( m),LOCATION ORIENTATION (°),Satellites in range,Time since start in ms ,YYYY-MO-DD HH-MI-SS_SSS
2.624045,-1.211466,5.19063,8.0,49.82833,24.046589,352.0,NaN,6.804,7.5,188.7,17 / 22,36,2020-03-14 13:28:07:840
-0.837971,4.874595,7.824251,8.0,49.82833,24.046589,352.0,NaN,6.804,7.5,188.7,13 / 22,536,2020-03-14 13:28:08:340
-3.045424,8.034941,6.95755,8.0,49.82833,24.046589,352.0,NaN,6.804,7.5,188.7,13 / 22,1036,2020-03-14 13:28:08:840
3.854665,-1.786074,7.196971,8.0,49.82833,24.046589,352.0,NaN,6.804,7.5,188.7,17 / 22,1536,2020-03-14 13:28:09:340
-0.459687,7.082049,14.350845,8.0,49.82833,24.046589,352.0,NaN,6.804,7.5,188.7,17 / 22,2036,2020-03-14 13:28:09:840
-3.203442,9.461885,8.571242,8.0,49.82833,24.046589,352.0,NaN,6.804,7.5,188.7,13 / 22,2536,2020-03-14 13:28:10:340
-2.327164,6.042965,-0.301669,8.0,49.82833,24.046589,352.0,NaN,6.804,7.5,188.7,13 / 22,3036,2020-03-14 13:28:10:840
3.567361,13.536817,17.223886,8.0,49.82833,24.046589,352.0,NaN,6.804,7.5,188.7,12 / 22,3536,2020-03-14 13:28:11:340
15.662868,16.76899,8.647857,8.0,49.82833,24.046589,352.0,NaN,6.804,7.5,188.7,12 / 22,4037,2020-03-14 13:28:11:841
1.216255,-3.375824,-0.852336,8.0,49.82833,24.046589,352.0,NaN,6.804,7.5,188.7,10 / 21,4536,2020-03-14 13:28:12:340
-1.182736,8.872911,3.380613,8.0,49.82833,24.046589,352.0,NaN,6.804,7.5,188.7,10 / 21,5036,2020-03-14 13:28:12:840
10.955867,1.833959,-5.080496,8.0,49.82833,24.046589,352.0,NaN,6.804,7.5,188.7,12 / 22,5536,2020-03-14 13:28:13:340
24.420856,17.621325,4.941633,8.0,49.82833,24.046589,352.0,NaN,6.804,7.5,188.7,12 / 22,6036,2020-03-14 13:28:13:840
-1.819593,9.169792,6.698977,8.0,49.82833,24.046589,352.0,NaN,6.804,7.5,188.7,11 / 22,6536,2020-03-14 13:28:14:340
12.282255,13.613431,-8.690952,8.0,49.82833,24.046589,352.0,NaN,6.804,7.5,188.7,11 / 22,7037,2020-03-14 13:28:14:841
10.884041,8.255207,2.217031,8.0,49.82833,24.046589,352.0,NaN,6.804,7.5,188.7,15 / 21,7536,2020-03-14 13:28:15:340
-2.528277,5.592855,2.868254,8.0,49.82833,24.046589,352.0,NaN,6.804,7.5,188.7,15 / 21,8036,2020-03-14 13:28:15:840
3.284845,-2.671929,-2.557007,8.0,49.82833,24.046589,352.0,NaN,6.804,7.5,188.7,16 / 21,8536,2020-03-14 13:28:16:340
15.701175,16.481684,16.864758,8.0,49.82833,24.046589,352.0,NaN,6.804,7.5,188.7,16 / 21,9036,2020-03-14 13:28:16:840
2.470816,11.99495,2.509123,8.0,49.82833,24.046589,352.0,NaN,6.804,7.5,188.7,15 / 20,9536,2020-03-14 13:28:17:340
-0.014365,-7.742848,1.321599,8.0,49.82833,24.046589,352.0,NaN,6.804,7.5,188.7,15 / 20,10036,2020-03-14 13:28:17:840
-2.221819,4.606444,2.059013,8.0,49.82833,24.046589,352.0,NaN,6.804,7.5,188.7,16 / 21,10536,2020-03-14 13:28:18:340
27.92118,31.024067,5.453992,8.0,49.82833,24.046589,352.0,NaN,6.804,7.5,188.7,16 / 21,11036,2020-03-14 13:28:18:840
3.845088,-0.201113,-1.268927,8.0,49.82833,24.046589,352.0,NaN,6.804,7.5,188.7,17 / 21,11536,2020-03-14 13:28:19:340
23.458387,20.63802,1.924938,8.0,49.82833,24.046589,352.0,NaN,6.804,7.5,188.7,17 / 21,12037,2020-03-14 13:28:19:841
-0.392649,11.204864,1.364695,8.0,49.82833,24.046589,352.0,NaN,6.804,7.5,188.7,18 / 21,12536,2020-03-14 13:28:20:340
0.718261,-10.443508,-2.983175,8.0,49.82833,24.046589,352.0,NaN,6.804,7.5,188.7,18 / 21,13036,2020-03-14 13:28:20:840
5.401319,11.200075,1.312023,8.0,49.82833,24.046589,352.0,NaN,6.804,7.5,188.7,17 / 22,13536,2020-03-14 13:28:21:340
11.056423,21.246145,0.205901,8.0,49.82833,24.046589,352.0,NaN,6.804,7.5,188.7,17 / 22,14036,2020-03-14 13:28:21:840
2.37026,-12.090718,-0.665588,8.0,49.82833,24.046589,352.0,NaN,6.804,7.5,188.7,18 / 22,14536,2020-03-14 13:28:22:340
4.165911,7.445967,-3.016694,8.0,49.82833,24.046589,352.0,NaN,6.804,7.5,188.7,18 / 22,15037,2020-03-14 13:28:22:841
-2.504335,-13.129802,0.153229,8.0,49.82833,24.046589,352.0,NaN,6.804,7.5,188.7,18 / 23,15536,2020-03-14 13:28:23:340
-3.720589,6.617574,6.66067,8.0,49.82833,24.046589,352.0,NaN,6.804,7.5,188.7,18 / 23,16036,2020-03-14 13:28:23:840
33.906685,26.03455,-1.288081,8.0,49.82833,24.046589,352.0,NaN,6.804,7.5,188.7,19 / 23,16536,2020-03-14 13:28:24:340
10.927136,5.693412,0.914585,8.0,49.82833,24.046589,352.0,NaN,6.804,7.5,188.7,19 / 23,17036,2020-03-14 13:28:24:840
-4.879383,6.607997,1.35033,8.0,49.82833,24.046589,352.0,NaN,6.804,7.5,188.7,22 / 23,17536,2020-03-14 13:28:25:340
20.087353,26.101587,-11.032481,8.0,49.82833,24.046589,352.0,NaN,6.804,7.5,188.7,22 / 23,18037,2020-03-14 13:28:25:841
4.563349,-9.040505,-11.865664,8.0,49.82833,24.046589,352.0,NaN,6.804,7.5,188.7,22 / 23,18536,2020-03-14 13:28:26:340
-0.095768,11.832145,5.272033,8.0,49.82833,24.046589,352.0,NaN,6.804,7.5,188.7,22 / 23,19036,2020-03-14 13:28:26:840
10.596737,-1.024718,-12.320562,8.0,49.82833,24.046589,352.0,NaN,6.804,7.5,188.7,21 / 24,19536,2020-03-14 13:28:27:340
12.334928,8.987833,6.603208,8.0,49.82833,24.046589,352.0,NaN,6.804,7.5,188.7,21 / 24,20036,2020-03-14 13:28:27:840
-12.583924,0.842759,0.148441,8.0,49.82833,24.046589,352.0,NaN,6.804,7.5,188.7,20 / 24,20537,2020-03-14 13:28:28:341
3.174712,-13.397953,-4.01747,8.0,49.82833,24.046589,352.0,NaN,6.804,7.5,188.7,20 / 24,21036,2020-03-14 13:28:28:840
-2.236184,-11.745954,0.02873,8.0,49.82833,24.046589,352.0,NaN,6.804,7.5,188.7,20 / 24,21537,2020-03-14 13:28:29:341
0.756568,7.264008,6.21056,8.0,49.82833,24.046589,352.0,NaN,6.804,7.5,188.7,20 / 24,22036,2020-03-14 13:28:29:840
10.711658,1.565808,5.841852,8.0,49.82833,24.046589,352.0,NaN,6.804,7.5,188.7,21 / 25,22536,2020-03-14 13:28:30:340
19.40261,12.095507,3.246538,8.0,49.82833,24.046589,352.0,NaN,6.804,7.5,188.7,21 / 25,23036,2020-03-14 13:28:30:840
-2.145205,8.987833,-1.326388,8.0,49.82833,24.046589,352.0,NaN,6.804,7.5,188.7,22 / 26,23536,2020-03-14 13:28:31:340
0.383072,-14.590265,-2.772485,8.0,49.82833,24.046589,352.0,NaN,6.804,7.5,188.7,22 / 26,24036,2020-03-14 13:28:31:840
11.066,24.53578,13.163321,8.0,49.82833,24.046589,352.0,NaN,6.804,7.5,188.7,22 / 26,24537,2020-03-14 13:28:32:341
8.212112,18.59337,0.833182,8.0,49.82833,24.046589,352.0,NaN,6.804,7.5,188.7,23 / 27,25036,2020-03-14 13:28:32:840
-1.862689,-14.748282,-0.54109,8.0,49.82833,24.046589,352.0,NaN,6.804,7.5,188.7,22 / 27,25536,2020-03-14 13:28:33:340
6.038177,1.790863,-0.004788,8.0,49.82833,24.046589,352.0,NaN,6.804,7.5,188.7,22 / 27,26036,2020-03-14 13:28:33:840
-3.035848,4.793192,3.706224,8.0,49.82833,24.046589,352.0,NaN,6.804,7.5,188.7,23 / 27,26537,2020-03-14 13:28:34:341
14.044387,-8.169016,-0.78051,8.0,49.82833,24.046589,352.0,NaN,6.804,7.5,188.7,23 / 27,27036,2020-03-14 13:28:34:840
14.001291,15.68681,6.722919,8.0,49.82833,24.046589,352.0,NaN,6.804,7.5,188.7,22 / 27,27536,2020-03-14 13:28:35:340
-3.663128,7.594408,3.241749,8.0,49.82833,24.046589,352.0,NaN,6.804,7.5,188.7,22 / 27,28036,2020-03-14 13:28:35:840
3.107674,-17.209522,2.839523,8.0,49.82833,24.046589,352.0,NaN,6.804,7.5,188.7,22 / 27,28536,2020-03-14 13:28:36:340
10.237606,22.18946,16.678009,8.0,49.82833,24.046589,352.0,NaN,6.804,7.5,188.7,22 / 27,29036,2020-03-14 13:28:36:840
5.813122,15.212758,3.682282,8.0,49.82833,24.046589,352.0,NaN,6.804,7.5,188.7,21 / 26,29537,2020-03-14 13:28:37:341
-2.743755,-12.555194,-4.189853,8.0,49.82833,24.046589,352.0,NaN,6.804,7.5,188.7,21 / 26,30036,2020-03-14 13:28:37:840
12.823344,7.086837,1.532289,8.0,49.82833,24.046589,352.0,NaN,6.804,7.5,188.7,22 / 27,30536,2020-03-14 13:28:38:340
-5.032612,5.846641,-3.227384,8.0,49.82833,24.046589,352.0,NaN,6.804,7.5,188.7,22 / 27,31037,2020-03-14 13:28:38:841
-0.579397,-14.470555,-7.608773,8.0,49.82833,24.046589,352.0,NaN,6.804,7.5,188.7,21 / 25,31536,2020-03-14 13:28:39:340
7.608773,9.136273,6.631939,8.0,49.82833,24.046589,352.0,NaN,6.804,7.5,188.7,21 / 25,32036,2020-03-14 13:28:39:840
18.976442,24.80393,12.789825,8.0,49.82833,24.046589,352.0,NaN,6.804,7.5,188.7,22 / 26,32536,2020-03-14 13:28:40:340
2.274492,-5.190629,-4.601655,8.0,49.82833,24.046589,352.0,NaN,6.804,7.5,188.7,22 / 26,33036,2020-03-14 13:28:40:840
-1.838747,7.024588,3.792416,8.0,49.82833,24.046589,352.0,NaN,6.804,7.5,188.7,20 / 26,33536,2020-03-14 13:28:41:340
30.248344,21.92131,-0.158017,8.0,49.82833,24.046589,352.0,NaN,6.804,7.5,188.7,20 / 26,34037,2020-03-14 13:28:41:841
13.771448,5.540183,0.248997,8.0,49.82833,24.046589,352.0,NaN,6.804,7.5,188.7,19 / 26,34536,2020-03-14 13:28:42:340
-1.527501,8.125921,0.914585,8.0,49.82833,24.046589,352.0,NaN,6.804,7.5,188.7,19 / 26,35036,2020-03-14 13:28:42:840
18.229452,22.558168,1.752556,8.0,49.82833,24.046589,352.0,NaN,6.804,7.5,188.7,21 / 27,35536,2020-03-14 13:28:43:340
0.014365,-6.497863,-3.375824,8.0,49.82833,24.046589,352.0,NaN,6.804,7.5,188.7,21 / 27,36036,2020-03-14 13:28:43:840
-3.174711,8.461109,3.53863,8.0,49.82833,24.046589,352.0,NaN,6.804,7.5,188.7,19 / 27,36536,2020-03-14 13:28:44:340
17.851168,10.591949,2.27928,8.0,49.82833,24.046589,352.0,NaN,6.804,7.5,188.7,19 / 27,37036,2020-03-14 13:28:44:840
14.767436,11.884817,2.547431,8.0,49.82833,24.046589,352.0,NaN,6.804,7.5,188.7,23 / 27,37536,2020-03-14 13:28:45:340
-2.106897,8.580819,1.541866,8.0,49.82833,24.046589,352.0,NaN,6.804,7.5,188.7,23 / 27,38036,2020-03-14 13:28:45:840
1.44131,-13.244724,-2.63841,8.0,49.82833,24.046589,352.0,NaN,6.804,7.5,188.7,19 / 26,38536,2020-03-14 13:28:46:340
3.849877,15.016433,6.349423,8.0,49.82833,24.046589,352.0,NaN,6.804,7.5,188.7,19 / 26,39037,2020-03-14 13:28:46:841
-2.351106,12.607866,7.800309,8.0,49.82833,24.046589,352.0,NaN,6.804,7.5,188.7,18 / 27,39536,2020-03-14 13:28:47:340
6.90009,-7.283161,-0.957681,8.0,49.82833,24.046589,352.0,NaN,6.804,7.5,188.7,18 / 27,40036,2020-03-14 13:28:47:840
23.865402,23.233334,12.880805,8.0,49.82833,24.046589,352.0,NaN,6.804,7.5,188.7,21 / 26,40536,2020-03-14 13:28:48:340
6.742072,16.050728,-0.038307,8.0,49.82833,24.046589,352.0,NaN,6.804,7.5,188.7,21 / 26,41036,2020-03-14 13:28:48:840
-0.708684,-10.338163,-3.438074,8.0,49.82833,24.046589,352.0,NaN,6.804,7.5,188.7,21 / 26,41537,2020-03-14 13:28:49:341
-0.68953,10.002975,3.945645,8.0,49.82833,24.046589,352.0,NaN,6.804,7.5,188.7,21 / 26,42037,2020-03-14 13:28:49:841
35.24265,33.059135,3.371036,8.0,49.82833,24.046589,352.0,NaN,6.804,7.5,188.7,19 / 26,42536,2020-03-14 13:28:50:340
2.260126,-0.497994,-3.213019,8.0,49.827374,24.045748,343.0,NaN,8.064,4.0,215.3,19 / 26,43036,2020-03-14 13:28:50:840
-3.672705,5.856218,2.920926,8.0,49.827374,24.045748,343.0,NaN,8.064,4.0,215.3,20 / 26,43536,2020-03-14 13:28:51:340
18.282124,7.776367,-5.712565,8.0,49.827374,24.045748,343.0,NaN,8.064,4.0,215.3,20 / 26,44036,2020-03-14 13:28:51:840
0.349553,-14.250289,-2.75812,8.0,49.827374,24.045748,343.0,NaN,8.064,4.0,215.3,17 / 26,44536,2020-03-14 13:28:52:340
9.294291,17.104177,7.541735,8.0,49.827374,24.045748,343.0,NaN,8.064,4.0,215.3,17 / 26,45037,2020-03-14 13:28:52:841
18.219875,26.757599,6.876148,8.0,49.827374,24.045748,343.0,NaN,8.064,4.0,215.3,18 / 26,45536,2020-03-14 13:28:53:340
3.007117,-4.390966,-2.896984,8.0,49.827374,24.045748,343.0,NaN,8.064,4.0,215.3,18 / 26,46036,2020-03-14 13:28:53:840
-5.48751,5.142745,5.530606,8.0,49.827374,24.045748,343.0,NaN,8.064,4.0,215.3,16 / 26,46536,2020-03-14 13:28:54:340
23.716963,-1.977611,-3.318364,8.0,49.827374,24.045748,343.0,NaN,8.064,4.0,215.3,16 / 26,47036,2020-03-14 13:28:54:840
24.521414,19.790472,5.43005,8.0,49.827374,24.045748,343.0,NaN,8.064,4.0,215.3,19 / 26,47536,2020-03-14 13:28:55:340
-2.600103,9.169792,-0.991199,8.0,49.827374,24.045748,343.0,NaN,8.064,4.0,215.3,19 / 26,48036,2020-03-14 13:28:55:840
32.609028,28.194118,3.806781,8.0,49.827374,24.045748,343.0,NaN,8.064,4.0,215.3,17 / 26,48536,2020-03-14 13:28:56:340
7.560889,2.72939,-3.021482,8.0,49.827374,24.045748,343.0,NaN,8.064,4.0,215.3,17 / 26,49037,2020-03-14 13:28:56:841
-2.906561,5.755661,3.734955,8.0,49.827374,24.045748,343.0,NaN,8.064,4.0,215.3,16 / 26,49536,2020-03-14 13:28:57:340
14.188039,-1.656788,-0.191536,8.0,49.827374,24.045748,343.0,NaN,8.064,4.0,215.3,16 / 26,50036,2020-03-14 13:28:57:840
16.883911,13.55597,3.72059,8.0,49.827374,24.045748,343.0,NaN,8.064,4.0,215.3,20 / 26,50536,2020-03-14 13:28:58:340
-1.240196,7.608773,0.799663,8.0,49.827374,24.045748,343.0,NaN,8.064,4.0,215.3,20 / 26,51036,2020-03-14 13:28:58:840
1.551443,-15.777789,-2.542642,8.0,49.827374,24.045748,343.0,NaN,8.064,4.0,215.3,18 / 26,51537,2020-03-14 13:28:59:341
7.536947,12.176909,4.118027,8.0,49.827374,24.045748,343.0,NaN,8.064,4.0,215.3,18 / 26,52036,2020-03-14 13:28:59:840
18.626888,22.146366,16.419436,8.0,49.827374,24.045748,343.0,NaN,8.064,4.0,215.3,18 / 26,52536,2020-03-14 13:29:00:340
0.679953,-2.317587,-3.529053,8.0,49.827374,24.045748,343.0,NaN,8.064,4.0,215.3,18 / 26,53037,2020-03-14 13:29:00:841
5.779603,15.428236,3.53863,8.0,49.827374,24.045748,343.0,NaN,8.064,4.0,215.3,21 / 26,53536,2020-03-14 13:29:01:340
14.168885,18.47366,3.711013,8.0,49.827374,24.045748,343.0,NaN,8.064,4.0,215.3,21 / 26,54036,2020-03-14 13:29:01:840
-1.752556,-7.307103,-0.402226,8.0,49.827374,24.045748,343.0,NaN,8.064,4.0,215.3,21 / 26,54536,2020-03-14 13:29:02:340
0.167594,7.235278,-0.411803,8.0,49.827374,24.045748,343.0,NaN,8.064,4.0,215.3,21 / 26,55036,2020-03-14 13:29:02:840
28.476633,15.935806,14.465767,8.0,49.827374,24.045748,343.0,NaN,8.064,4.0,215.3,22 / 25,55536,2020-03-14 13:29:03:340
16.543934,9.830592,4.247314,8.0,49.827374,24.045748,343.0,NaN,8.064,4.0,215.3,22 / 25,56036,2020-03-14 13:29:03:840
-3.055001,8.576031,-1.934515,8.0,49.827374,24.045748,343.0,NaN,8.064,4.0,215.3,20 / 25,56536,2020-03-14 13:29:04:340
1.666364,-11.990162,-0.105345,8.0,49.827374,24.045748,343.0,NaN,8.064,4.0,215.3,20 / 25,57036,2020-03-14 13:29:04:840
0.244209,7.795521,3.280056,8.0,49.827374,24.045748,343.0,NaN,8.064,4.0,215.3,20 / 25,57536,2020-03-14 13:29:05:340
31.067162,7.244855,1.221043,8.0,49.827374,24.045748,343.0,NaN,8.064,4.0,215.3,20 / 25,58036,2020-03-14 13:29:05:840
4.228161,-12.564771,0.837971,8.0,49.827374,24.045748,343.0,NaN,8.064,4.0,215.3,18 / 25,58536,2020-03-14 13:29:06:340
2.37026,12.133814,2.896984,8.0,49.827374,24.045748,343.0,NaN,8.064,4.0,215.3,18 / 25,59036,2020-03-14 13:29:06:840
13.852851,23.712173,7.690176,8.0,49.827374,24.045748,343.0,NaN,8.064,4.0,215.3,19 / 25,59536,2020-03-14 13:29:07:340
4.055778,-5.023035,-4.295198,8.0,49.827374,24.045748,343.0,NaN,8.064,4.0,215.3,19 / 25,60037,2020-03-14 13:29:07:841
-0.45011,7.07726,4.683059,8.0,49.827374,24.045748,343.0,NaN,8.064,4.0,215.3,19 / 25,60536,2020-03-14 13:29:08:340
12.545617,-2.628833,-3.227384,8.0,49.827374,24.045748,343.0,NaN,8.064,4.0,215.3,19 / 25,61036,2020-03-14 13:29:08:840
18.981232,21.16953,5.841852,8.0,49.827374,24.045748,343.0,NaN,8.064,4.0,215.3,19 / 25,61536,2020-03-14 13:29:09:340
-1.249773,9.902418,-1.225831,8.0,49.827374,24.045748,343.0,NaN,8.064,4.0,215.3,19 / 25,62036,2020-03-14 13:29:09:840
32.848446,27.811047,1.312023,8.0,49.827374,24.045748,343.0,NaN,8.064,4.0,215.3,18 / 25,62536,2020-03-14 13:29:10:340
10.065224,7.441179,5.813122,8.0,49.827374,24.045748,343.0,NaN,8.064,4.0,215.3,18 / 25,63036,2020-03-14 13:29:10:840
-3.902549,6.991069,4.663905,8.0,49.827374,24.045748,343.0,NaN,8.064,4.0,215.3,21 / 25,63537,2020-03-14 13:29:11:341
2.710236,-11.434708,0.009577,8.0,49.827374,24.045748,343.0,NaN,8.064,4.0,215.3,21 / 25,64036,2020-03-14 13:29:11:840
4.132392,12.780249,6.143522,8.0,49.827374,24.045748,343.0,NaN,8.064,4.0,215.3,21 / 25,64536,2020-03-14 13:29:12:340
20.84392,27.700914,4.299987,8.0,49.827374,24.045748,343.0,NaN,8.064,4.0,215.3,21 / 25,65037,2020-03-14 13:29:12:841
1.570596,-1.699883,-3.08852,8.0,49.827374,24.045748,343.0,NaN,8.064,4.0,215.3,20 / 25,65537,2020-03-14 13:29:13:341
-0.373495,5.650316,-0.196325,8.0,49.827374,24.045748,343.0,NaN,8.064,4.0,215.3,20 / 25,66036,2020-03-14 13:29:13:840
3.351883,-7.905654,-2.360683,8.0,49.827374,24.045748,343.0,NaN,8.064,4.0,215.3,18 / 25,66537,2020-03-14 13:29:14:341
3.064578,-0.344765,-2.446874,8.0,49.827374,24.045748,343.0,NaN,8.064,4.0,215.3,18 / 25,67037,2020-03-14 13:29:14:841
-1.211466,5.755661,2.015918,8.0,49.827374,24.045748,343.0,NaN,8.064,4.0,215.3,17 / 25,67536,2020-03-14 13:29:15:340
0.234632,-9.514558,-0.895431,8.0,49.827374,24.045748,343.0,NaN,8.064,4.0,215.3,17 / 25,68037,2020-03-14 13:29:15:841
22.448034,27.269957,5.415684,8.0,49.827374,24.045748,343.0,NaN,8.064,4.0,215.3,18 / 25,68536,2020-03-14 13:29:16:340
7.264008,18.282124,13.690045,8.0,49.827374,24.045748,343.0,NaN,8.064,4.0,215.3,18 / 25,69036,2020-03-14 13:29:16:840
1.814805,-2.973598,-3.198653,8.0,49.827374,24.045748,343.0,NaN,8.064,4.0,215.3,18 / 25,69536,2020-03-14 13:29:17:340
-1.527501,6.354212,1.517924,8.0,49.827374,24.045748,343.0,NaN,8.064,4.0,215.3,21 / 25,70036,2020-03-14 13:29:17:840
3.428497,-6.244078,0.919373,8.0,49.827374,24.045748,343.0,NaN,8.064,4.0,215.3,19 / 26,70536,2020-03-14 13:29:18:340
17.702728,20.767305,3.174712,8.0,49.827374,24.045748,343.0,NaN,8.064,4.0,215.3,19 / 26,71036,2020-03-14 13:29:18:840
-3.481169,9.074024,-0.153229,8.0,49.827374,24.045748,343.0,NaN,8.064,4.0,215.3,19 / 26,71536,2020-03-14 13:29:19:340
1.154005,-15.002068,-1.757344,8.0,49.827374,24.045748,343.0,NaN,8.064,4.0,215.3,19 / 26,72036,2020-03-14 13:29:19:840
12.497733,8.418014,1.412579,8.0,49.827374,24.045748,343.0,NaN,8.064,4.0,215.3,20 / 26,72536,2020-03-14 13:29:20:340
-4.165911,5.530606,1.762132,8.0,49.827374,24.045748,343.0,NaN,8.064,4.0,215.3,20 / 26,73036,2020-03-14 13:29:20:840
2.959233,-12.282255,-2.858677,8.0,49.827374,24.045748,343.0,NaN,8.064,4.0,215.3,22 / 26,73536,2020-03-14 13:29:21:340
23.745693,30.162153,8.374918,8.0,49.827374,24.045748,343.0,NaN,8.064,4.0,215.3,22 / 26,74036,2020-03-14 13:29:21:840
1.862689,14.891934,-0.713472,8.0,49.827374,24.045748,343.0,NaN,8.064,4.0,215.3,23 / 26,74536,2020-03-14 13:29:22:340
0.560243,-10.922348,-3.442862,8.0,49.827374,24.045748,343.0,NaN,8.064,4.0,215.3,23 / 26,75036,2020-03-14 13:29:22:840
1.149217,7.833828,-0.622492,8.0,49.827374,24.045748,343.0,NaN,8.064,4.0,215.3,23 / 26,75536,2020-03-14 13:29:23:340
28.85492,28.227638,4.716578,8.0,49.827374,24.045748,343.0,NaN,8.064,4.0,215.3,23 / 26,76036,2020-03-14 13:29:23:840
9.097966,3.60088,-3.442862,8.0,49.827374,24.045748,343.0,NaN,8.064,4.0,215.3,22 / 26,76536,2020-03-14 13:29:24:340
-2.15957,4.965575,1.187524,8.0,49.827374,24.045748,343.0,NaN,8.064,4.0,215.3,22 / 26,77036,2020-03-14 13:29:24:840
3.433285,-7.503428,-2.149993,8.0,49.827374,24.045748,343.0,NaN,8.064,4.0,215.3,22 / 26,77536,2020-03-14 13:29:25:340
0.818817,-1.503559,-3.605668,8.0,49.827374,24.045748,343.0,NaN,8.064,4.0,215.3,22 / 26,78036,2020-03-14 13:29:25:840
-1.728614,5.851429,4.587291,8.0,49.827374,24.045748,343.0,NaN,8.064,4.0,215.3,23 / 26,78536,2020-03-14 13:29:26:340
17.324444,9.174581,-6.454767,8.0,49.827374,24.045748,343.0,NaN,8.064,4.0,215.3,23 / 26,79036,2020-03-14 13:29:26:840
15.969325,12.962208,-2.240973,8.0,49.827374,24.045748,343.0,NaN,8.064,4.0,215.3,23 / 26,79537,2020-03-14 13:29:27:341
-2.552219,8.044518,-2.303222,8.0,49.827374,24.045748,343.0,NaN,8.064,4.0,215.3,23 / 26,80036,2020-03-14 13:29:27:840
0.019154,-15.500062,-1.015141,8.0,49.827374,24.045748,343.0,NaN,8.064,4.0,215.3,23 / 26,80536,2020-03-14 13:29:28:340
8.647857,16.639702,6.579266,8.0,49.827374,24.045748,343.0,NaN,8.064,4.0,215.3,23 / 27,81036,2020-03-14 13:29:28:840
10.572795,22.452824,2.911349,8.0,49.827374,24.045748,343.0,NaN,8.064,4.0,215.3,23 / 27,81537,2020-03-14 13:29:29:341
0.311246,-9.059659,-0.78051,8.0,49.827374,24.045748,343.0,NaN,8.064,4.0,215.3,23 / 27,82036,2020-03-14 13:29:29:840
0.814029,11.353305,7.455544,8.0,49.827374,24.045748,343.0,NaN,8.064,4.0,215.3,24 / 27,82537,2020-03-14 13:29:30:341
37.79487,34.85479,3.758897,8.0,49.827374,24.045748,343.0,NaN,8.064,4.0,215.3,24 / 27,83036,2020-03-14 13:29:30:840
15.998055,1.810017,-2.03986,8.0,49.827374,24.045748,343.0,NaN,8.064,4.0,215.3,23 / 27,83536,2020-03-14 13:29:31:340
13.694834,19.919758,10.218452,8.0,49.827374,24.045748,343.0,NaN,8.064,4.0,215.3,23 / 27,84037,2020-03-14 13:29:31:841
6.459556,23.00349,-0.837971,8.0,49.827374,24.045748,343.0,NaN,8.064,4.0,215.3,22 / 27,84536,2020-03-14 13:29:32:340
3.375825,-5.985504,-1.757344,8.0,49.827374,24.045748,343.0,NaN,8.064,4.0,215.3,22 / 27,85036,2020-03-14 13:29:32:840
-2.250549,6.991069,-0.579397,8.0,49.827374,24.045748,343.0,NaN,8.064,4.0,215.3,21 / 27,85536,2020-03-14 13:29:33:340
21.768082,17.266985,-5.094861,8.0,49.827374,24.045748,343.0,NaN,8.064,4.0,215.3,21 / 27,86037,2020-03-14 13:29:33:841
13.608643,8.125921,-1.94888,8.0,49.827374,24.045748,343.0,NaN,8.064,4.0,215.3,21 / 27,86537,2020-03-14 13:29:34:341
-4.812345,7.125145,1.015142,8.0,49.827374,24.045748,343.0,NaN,8.064,4.0,215.3,21 / 27,87036,2020-03-14 13:29:34:840
16.242264,-4.295198,-2.140416,8.0,49.827374,24.045748,343.0,NaN,8.064,4.0,215.3,21 / 27,87536,2020-03-14 13:29:35:340
-1.187524,-6.23929,-2.236184,8.0,49.827374,24.045748,343.0,NaN,8.064,4.0,215.3,21 / 27,88036,2020-03-14 13:29:35:840
-1.484405,6.181829,1.067814,8.0,49.827374,24.045748,343.0,NaN,8.064,4.0,215.3,21 / 27,88536,2020-03-14 13:29:36:340
27.878084,22.85505,4.596867,8.0,49.827374,24.045748,343.0,NaN,8.064,4.0,215.3,21 / 27,89037,2020-03-14 13:29:36:841
10.218452,3.303998,-1.393425,8.0,49.827374,24.045748,343.0,NaN,8.064,4.0,215.3,23 / 27,89536,2020-03-14 13:29:37:340
-4.371812,5.78918,1.728614,8.0,49.827374,24.045748,343.0,NaN,8.064,4.0,215.3,23 / 27,90037,2020-03-14 13:29:37:841
3.462016,-10.01734,-3.20823,8.0,49.82725,24.044334,347.0,NaN,10.332,2.5,277.1,23 / 26,90536,2020-03-14 13:29:38:340
14.930242,22.127213,8.628703,8.0,49.82725,24.044334,347.0,NaN,10.332,2.5,277.1,23 / 26,91036,2020-03-14 13:29:38:840
-4.601655,7.905654,3.462016,8.0,49.82725,24.044334,347.0,NaN,10.332,2.5,277.1,22 / 26,91536,2020-03-14 13:29:39:340
9.797073,-5.070919,-4.223372,8.0,49.82725,24.044334,347.0,NaN,10.332,2.5,277.1,22 / 26,92036,2020-03-14 13:29:39:840
19.067423,14.025233,2.269703,8.0,49.82725,24.044334,347.0,NaN,10.332,2.5,277.1,20 / 26,92536,2020-03-14 13:29:40:340
-3.361459,5.439626,0.023942,8.0,49.82725,24.044334,347.0,NaN,10.332,2.5,277.1,20 / 26,93036,2020-03-14 13:29:40:840
-0.938527,-14.384364,-2.035071,8.0,49.82725,24.044334,347.0,NaN,10.332,2.5,277.1,21 / 27,93536,2020-03-14 13:29:41:340
20.992361,26.101587,6.804322,8.0,49.82725,24.044334,347.0,NaN,10.332,2.5,277.1,21 / 27,94036,2020-03-14 13:29:41:840
5.281609,15.17445,-0.593762,8.0,49.82725,24.044334,347.0,NaN,10.332,2.5,277.1,21 / 27,94536,2020-03-14 13:29:42:340
-0.45011,-12.818556,-3.835511,8.0,49.82725,24.044334,347.0,NaN,10.332,2.5,277.1,21 / 27,95036,2020-03-14 13:29:42:840
13.862428,15.246277,9.030929,8.0,49.82725,24.044334,347.0,NaN,10.332,2.5,277.1,23 / 27,95536,2020-03-14 13:29:43:340
8.432379,16.22311,-2.63841,8.0,49.82725,24.044334,347.0,NaN,10.332,2.5,277.1,23 / 27,96036,2020-03-14 13:29:43:840
35.48207,15.298949,-5.655104,8.0,49.82725,24.044334,347.0,NaN,10.332,2.5,277.1,23 / 27,96536,2020-03-14 13:29:44:340
10.730812,1.479617,-2.528277,8.0,49.82725,24.044334,347.0,NaN,10.332,2.5,277.1,23 / 27,97036,2020-03-14 13:29:44:840
1.752556,7.991845,-1.316811,8.0,49.82725,24.044334,347.0,NaN,10.332,2.5,277.1,23 / 27,97536,2020-03-14 13:29:45:340
3.064578,-15.26543,1.479617,8.0,49.82725,24.044334,347.0,NaN,10.332,2.5,277.1,23 / 27,98036,2020-03-14 13:29:45:840
18.990808,24.875755,5.568913,8.0,49.82725,24.044334,347.0,NaN,10.332,2.5,277.1,24 / 28,98536,2020-03-14 13:29:46:340
2.8491,12.660539,-0.143652,8.0,49.82725,24.044334,347.0,NaN,10.332,2.5,277.1,24 / 28,99037,2020-03-14 13:29:46:841
7.297527,-16.51999,-2.1883,8.0,49.82725,24.044334,347.0,NaN,10.332,2.5,277.1,24 / 28,99536,2020-03-14 13:29:47:340
19.747375,20.484789,-0.550666,8.0,49.82725,24.044334,347.0,NaN,10.332,2.5,277.1,24 / 28,100036,2020-03-14 13:29:47:840
-1.551443,5.899313,3.969586,8.0,49.82725,24.044334,347.0,NaN,10.332,2.5,277.1,23 / 27,100536,2020-03-14 13:29:48:340
17.51119,4.544195,-1.546654,8.0,49.82725,24.044334,347.0,NaN,10.332,2.5,277.1,23 / 27,101036,2020-03-14 13:29:48:840
12.440272,7.220913,0.948104,8.0,49.82725,24.044334,347.0,NaN,10.332,2.5,277.1,23 / 28,101536,2020-03-14 13:29:49:340
-2.96881,5.942409,0.057461,8.0,49.82725,24.044334,347.0,NaN,10.332,2.5,277.1,23 / 28,102037,2020-03-14 13:29:49:841
2.82037,-13.086706,-2.202665,8.0,49.82725,24.044334,347.0,NaN,10.332,2.5,277.1,23 / 28,102536,2020-03-14 13:29:50:340
24.966736,27.408821,10.366894,8.0,49.82725,24.044334,347.0,NaN,10.332,2.5,277.1,23 / 28,103036,2020-03-14 13:29:50:840
-2.75812,8.810662,-1.23062,8.0,49.82725,24.044334,347.0,NaN,10.332,2.5,277.1,23 / 28,103537,2020-03-14 13:29:51:341
3.29921,-11.674128,-5.051765,8.0,49.82725,24.044334,347.0,NaN,10.332,2.5,277.1,23 / 28,104036,2020-03-14 13:29:51:840
6.200983,1.201889,-3.342306,8.0,49.82725,24.044334,347.0,NaN,10.332,2.5,277.1,23 / 28,104536,2020-03-14 13:29:52:340
-4.041412,6.114791,4.204219,8.0,49.82725,24.044334,347.0,NaN,10.332,2.5,277.1,23 / 28,105036,2020-03-14 13:29:52:840
37.27772,25.167849,7.422025,8.0,49.82725,24.044334,347.0,NaN,10.332,2.5,277.1,23 / 27,105536,2020-03-14 13:29:53:340
12.741941,9.188946,1.335965,8.0,49.82725,24.044334,347.0,NaN,10.332,2.5,277.1,23 / 27,106036,2020-03-14 13:29:53:840
-4.462792,6.943185,0.818817,8.0,49.82725,24.044334,347.0,NaN,10.332,2.5,277.1,23 / 27,106536,2020-03-14 13:29:54:340
13.589489,-1.355118,-7.881712,8.0,49.82725,24.044334,347.0,NaN,10.332,2.5,277.1,23 / 27,107036,2020-03-14 13:29:54:840
19.120094,16.146496,5.932832,8.0,49.82725,24.044334,347.0,NaN,10.332,2.5,277.1,23 / 27,107536,2020-03-14 13:29:55:340
-3.859453,6.421249,0.799663,8.0,49.82725,24.044334,347.0,NaN,10.332,2.5,277.1,23 / 28,108036,2020-03-14 13:29:55:840
2.346318,-12.186486,-3.055001,8.0,49.82725,24.044334,347.0,NaN,10.332,2.5,277.1,23 / 28,108536,2020-03-14 13:29:56:340
3.442862,-5.904101,-2.485181,8.0,49.82725,24.044334,347.0,NaN,10.332,2.5,277.1,23 / 28,109037,2020-03-14 13:29:56:841
-0.344765,1.671153,5.755661,0.0,49.82725,24.044334,347.0,NaN,10.332,2.5,277.1,23 / 28,109536,2020-03-14 13:29:57:340
11.870452,18.195932,1.321599,0.0,49.82725,24.044334,347.0,NaN,10.332,2.5,277.1,23 / 28,110037,2020-03-14 13:29:57:841
3.945645,4.01747,1.532289,0.0,49.82725,24.044334,347.0,NaN,10.332,2.5,277.1,22 / 27,110537,2020-03-14 13:29:58:341
-5.39653,1.819593,9.68694,8.0,49.82725,24.044334,347.0,NaN,10.332,2.5,277.1,22 / 27,111036,2020-03-14 13:29:58:840
37.703888,30.20046,3.222596,8.0,49.82725,24.044334,347.0,NaN,10.332,2.5,277.1,23 / 27,111536,2020-03-14 13:29:59:340
7.656657,6.114791,6.0286,8.0,49.82725,24.044334,347.0,NaN,10.332,2.5,277.1,23 / 27,112036,2020-03-14 13:29:59:840
12.62702,23.63556,9.591172,8.0,49.82725,24.044334,347.0,NaN,10.332,2.5,277.1,22 / 28,112537,2020-03-14 13:30:00:341
1.316811,15.035586,-0.258574,8.0,49.82725,24.044334,347.0,NaN,10.332,2.5,277.1,22 / 28,113036,2020-03-14 13:30:00:840
1.388637,-12.981361,-2.197877,8.0,49.82725,24.044334,347.0,NaN,10.332,2.5,277.1,22 / 28,113536,2020-03-14 13:30:01:340
-1.010353,11.377247,17.942148,8.0,49.82725,24.044334,347.0,NaN,10.332,2.5,277.1,22 / 27,114036,2020-03-14 13:30:01:840
4.692636,22.246922,5.042189,8.0,49.82725,24.044334,347.0,NaN,10.332,2.5,277.1,19 / 25,114537,2020-03-14 13:30:02:341
2.121263,-11.918336,1.35033,8.0,49.82725,24.044334,347.0,NaN,10.332,2.5,277.1,19 / 25,115037,2020-03-14 13:30:02:841
3.337517,9.677363,2.542642,8.0,49.82725,24.044334,347.0,NaN,10.332,2.5,277.1,24 / 27,115536,2020-03-14 13:30:03:340
13.426683,29.194895,11.860875,8.0,49.82725,24.044334,347.0,NaN,10.332,2.5,277.1,24 / 27,116036,2020-03-14 13:30:03:840
1.972822,-6.153098,-2.418144,8.0,49.82725,24.044334,347.0,NaN,10.332,2.5,277.1,23 / 27,116536,2020-03-14 13:30:04:340
13.13459,5.056554,5.118803,8.0,49.82725,24.044334,347.0,NaN,10.332,2.5,277.1,23 / 27,117037,2020-03-14 13:30:04:841
-2.183512,6.574478,-0.009577,8.0,49.82725,24.044334,347.0,NaN,10.332,2.5,277.1,22 / 28,117536,2020-03-14 13:30:05:340
1.431733,-11.061212,-5.530606,8.0,49.82725,24.044334,347.0,NaN,10.332,2.5,277.1,22 / 28,118036,2020-03-14 13:30:05:840
23.831884,23.39614,17.434576,8.0,49.82725,24.044334,347.0,NaN,10.332,2.5,277.1,24 / 28,118536,2020-03-14 13:30:06:340
-2.633622,9.476251,2.226608,8.0,49.82725,24.044334,347.0,NaN,10.332,2.5,277.1,24 / 28,119036,2020-03-14 13:30:06:840
-2.422932,-18.042704,-3.040636,8.0,49.82725,24.044334,347.0,NaN,10.332,2.5,277.1,22 / 28,119536,2020-03-14 13:30:07:340
-0.71826,15.035586,8.092402,8.0,49.82725,24.044334,347.0,NaN,10.332,2.5,277.1,22 / 28,120036,2020-03-14 13:30:07:840
14.590265,22.76407,2.964022,8.0,49.82725,24.044334,347.0,NaN,10.332,2.5,277.1,24 / 28,120536,2020-03-14 13:30:08:340
16.49605,4.659117,4.395755,8.0,49.82725,24.044334,347.0,NaN,10.332,2.5,277.1,24 / 28,121036,2020-03-14 13:30:08:840
11.947066,7.52737,4.185065,8.0,49.82725,24.044334,347.0,NaN,10.332,2.5,277.1,23 / 28,121536,2020-03-14 13:30:09:340
-4.065354,6.684612,1.216255,8.0,49.82725,24.044334,347.0,NaN,10.332,2.5,277.1,23 / 28,122036,2020-03-14 13:30:09:840
13.623008,-5.386954,1.187524,8.0,49.82725,24.044334,347.0,NaN,10.332,2.5,277.1,22 / 28,122536,2020-03-14 13:30:10:340
13.737929,16.692375,7.685388,8.0,49.82725,24.044334,347.0,NaN,10.332,2.5,277.1,22 / 28,123036,2020-03-14 13:30:10:840
-0.134075,9.102755,2.624045,8.0,49.82725,24.044334,347.0,NaN,10.332,2.5,277.1,23 / 29,123536,2020-03-14 13:30:11:340
8.06846,-8.748413,-4.951209,8.0,49.82725,24.044334,347.0,NaN,10.332,2.5,277.1,23 / 29,124037,2020-03-14 13:30:11:841
20.345926,28.093563,0.35913,8.0,49.82725,24.044334,347.0,NaN,10.332,2.5,277.1,24 / 29,124538,2020-03-14 13:30:12:342
1.082179,10.419566,7.029376,8.0,49.82725,24.044334,347.0,NaN,10.332,2.5,277.1,24 / 29,125036,2020-03-14 13:30:12:840
10.022128,23.81273,8.829816,8.0,49.82725,24.044334,347.0,NaN,10.332,2.5,277.1,24 / 29,125536,2020-03-14 13:30:13:340
0.646435,-14.446613,-1.805228,8.0,49.82725,24.044334,347.0,NaN,10.332,2.5,277.1,24 / 29,126036,2020-03-14 13:30:13:840
7.623139,10.668563,5.951986,8.0,49.82725,24.044334,347.0,NaN,10.332,2.5,277.1,23 / 29,126536,2020-03-14 13:30:14:340
12.588713,26.499025,16.515203,8.0,49.82725,24.044334,347.0,NaN,10.332,2.5,277.1,23 / 29,127036,2020-03-14 13:30:14:840
-1.182736,-14.255077,-2.432509,8.0,49.82725,24.044334,347.0,NaN,10.332,2.5,277.1,22 / 29,127537,2020-03-14 13:30:15:341
-2.231396,6.847417,14.015656,8.0,49.82725,24.044334,347.0,NaN,10.332,2.5,277.1,22 / 29,128036,2020-03-14 13:30:15:840
19.85751,28.677748,8.202535,8.0,49.82725,24.044334,347.0,NaN,10.332,2.5,277.1,18 / 28,128536,2020-03-14 13:30:16:340
21.997925,-5.018246,3.758897,8.0,49.82725,24.044334,347.0,NaN,10.332,2.5,277.1,18 / 28,129037,2020-03-14 13:30:16:841
16.864758,12.540829,3.706224,8.0,49.82725,24.044334,347.0,NaN,10.332,2.5,277.1,21 / 29,129536,2020-03-14 13:30:17:340
-5.650316,7.718907,0.454898,8.0,49.82725,24.044334,347.0,NaN,10.332,2.5,277.1,21 / 29,130036,2020-03-14 13:30:17:840
1.244985,-14.982914,-5.81791,8.0,49.82725,24.044334,347.0,NaN,10.332,2.5,277.1,20 / 29,130536,2020-03-14 13:30:18:340
17.367538,27.284323,3.696648,8.0,49.82725,24.044334,347.0,NaN,10.332,2.5,277.1,20 / 29,131036,2020-03-14 13:30:18:840
3.265691,17.281347,-2.025495,8.0,49.82725,24.044334,347.0,NaN,10.332,2.5,277.1,21 / 29,131537,2020-03-14 13:30:19:341
4.802769,-16.634912,0.80924,8.0,49.82725,24.044334,347.0,NaN,10.332,2.5,277.1,21 / 29,132036,2020-03-14 13:30:19:840
3.102886,14.293385,22.495918,8.0,49.82725,24.044334,347.0,NaN,10.332,2.5,277.1,21 / 29,132536,2020-03-14 13:30:20:340
-3.246537,10.180145,5.209783,8.0,49.82725,24.044334,347.0,NaN,10.332,2.5,277.1,21 / 29,133036,2020-03-14 13:30:20:840
38.36469,8.403648,-0.004788,8.0,49.82725,24.044334,347.0,NaN,10.332,2.5,277.1,19 / 29,133537,2020-03-14 13:30:21:341
16.927006,12.291832,-2.264915,8.0,49.82725,24.044334,347.0,NaN,10.332,2.5,277.1,19 / 29,134036,2020-03-14 13:30:21:840
0.387861,9.524135,-4.544194,8.0,49.82725,24.044334,347.0,NaN,10.332,2.5,277.1,19 / 29,134536,2020-03-14 13:30:22:340
6.229713,-16.893488,0.225055,8.0,49.82725,24.044334,347.0,NaN,10.332,2.5,277.1,19 / 29,135037,2020-03-14 13:30:22:841
16.582241,28.471848,22.543802,8.0,49.82725,24.044334,347.0,NaN,10.332,2.5,277.1,22 / 28,135536,2020-03-14 13:30:23:340
11.142614,19.804836,1.187524,8.0,49.82725,24.044334,347.0,NaN,10.332,2.5,277.1,22 / 28,136036,2020-03-14 13:30:23:840
1.699883,-13.101071,-7.833828,8.0,49.82725,24.044334,347.0,NaN,10.332,2.5,277.1,22 / 28,136536,2020-03-14 13:30:24:340
-2.614468,4.754885,1.991976,8.0,49.82725,24.044334,347.0,NaN,10.332,2.5,277.1,22 / 28,137036,2020-03-14 13:30:24:840
-7.259219,6.138734,-1.422156,8.0,49.82725,24.044334,347.0,NaN,10.332,2.5,277.1,21 / 28,137537,2020-03-14 13:30:25:341
12.334928,-9.394848,6.794745,8.0,49.82725,24.044334,347.0,NaN,10.332,2.5,277.1,21 / 28,138036,2020-03-14 13:30:25:840
15.47612,12.119449,1.177947,8.0,49.827606,24.042818,355.0,NaN,7.38,3.0,222.1,22 / 28,138536,2020-03-14 13:30:26:340
-3.998317,7.417237,0.296881,8.0,49.827606,24.042818,355.0,NaN,7.38,3.0,222.1,22 / 28,139036,2020-03-14 13:30:26:840
0.407014,-23.204603,-3.524265,8.0,49.827606,24.042818,355.0,NaN,7.38,3.0,222.1,22 / 28,139536,2020-03-14 13:30:27:340
23.54458,27.384878,15.294161,8.0,49.827606,24.042818,355.0,NaN,7.38,3.0,222.1,22 / 28,140036,2020-03-14 13:30:27:840
0.033519,11.789049,-3.519476,8.0,49.827606,24.042818,355.0,NaN,7.38,3.0,222.1,23 / 28,140536,2020-03-14 13:30:28:340
1.192313,-15.629349,-2.94008,8.0,49.827606,24.042818,355.0,NaN,7.38,3.0,222.1,23 / 28,141036,2020-03-14 13:30:28:840
0.909797,10.156203,1.939303,8.0,49.827606,24.042818,355.0,NaN,7.38,3.0,222.1,23 / 28,141536,2020-03-14 13:30:29:340
22.448034,31.392773,13.594277,8.0,49.827606,24.042818,355.0,NaN,7.38,3.0,222.1,24 / 28,142036,2020-03-14 13:30:29:840
12.818556,-12.622231,-0.656011,8.0,49.827606,24.042818,355.0,NaN,7.38,3.0,222.1,24 / 27,142536,2020-03-14 13:30:30:340
30.827742,24.339455,13.125013,8.0,49.827606,24.042818,355.0,NaN,7.38,3.0,222.1,24 / 27,143036,2020-03-14 13:30:30:840
-5.353435,10.534488,-3.936067,8.0,49.827606,24.042818,355.0,NaN,7.38,3.0,222.1,24 / 27,143536,2020-03-14 13:30:31:340
3.782839,-17.03235,0.574608,8.0,49.827606,24.042818,355.0,NaN,7.38,3.0,222.1,24 / 27,144036,2020-03-14 13:30:31:840
13.335704,28.66817,9.979033,8.0,49.827606,24.042818,355.0,NaN,7.38,3.0,222.1,22 / 27,144537,2020-03-14 13:30:32:341
-7.307103,7.556101,1.345541,8.0,49.827606,24.042818,355.0,NaN,7.38,3.0,222.1,22 / 27,145036,2020-03-14 13:30:32:840
1.733402,-17.439365,0.646435,8.0,49.827606,24.042818,355.0,NaN,7.38,3.0,222.1,23 / 28,145536,2020-03-14 13:30:33:340
17.568651,24.114397,6.200983,8.0,49.827606,24.042818,355.0,NaN,7.38,3.0,222.1,23 / 28,146036,2020-03-14 13:30:33:840
3.86903,16.836027,-0.727837,8.0,49.827606,24.042818,355.0,NaN,7.38,3.0,222.1,23 / 28,146536,2020-03-14 13:30:34:340
-0.363919,-9.730036,-8.370129,8.0,49.827606,24.042818,355.0,NaN,7.38,3.0,222.1,23 / 28,147036,2020-03-14 13:30:34:840
22.61563,14.867992,1.814805,8.0,49.827606,24.042818,355.0,NaN,7.38,3.0,222.1,23 / 28,147536,2020-03-14 13:30:35:340
-4.884171,7.508217,-0.59855,8.0,49.827606,24.042818,355.0,NaN,7.38,3.0,222.1,23 / 28,148036,2020-03-14 13:30:35:840
-2.844312,-19.498379,-7.038953,8.0,49.827606,24.042818,355.0,NaN,7.38,3.0,222.1,24 / 28,148536,2020-03-14 13:30:36:340
17.03714,28.1606,2.935291,8.0,49.827606,24.042818,355.0,NaN,7.38,3.0,222.1,24 / 28,149036,2020-03-14 13:30:36:840
2.710236,19.191921,-0.799663,8.0,49.827606,24.042818,355.0,NaN,7.38,3.0,222.1,23 / 28,149536,2020-03-14 13:30:37:340
2.255338,-7.915231,-1.273715,8.0,49.827606,24.042818,355.0,NaN,7.38,3.0,222.1,23 / 28,150037,2020-03-14 13:30:37:841
-0.11971,8.633492,7.158664,8.0,49.827606,24.042818,355.0,NaN,7.38,3.0,222.1,22 / 28,150536,2020-03-14 13:30:38:340
22.682667,25.100813,-3.160346,8.0,49.827606,24.042818,355.0,NaN,7.38,3.0,222.1,22 / 28,151036,2020-03-14 13:30:38:840
13.857639,5.841852,-2.1883,8.0,49.827606,24.042818,355.0,NaN,7.38,3.0,222.1,23 / 28,151536,2020-03-14 13:30:39:340
4.663905,20.135237,6.866571,8.0,49.827606,24.042818,355.0,NaN,7.38,3.0,222.1,23 / 28,152037,2020-03-14 13:30:39:841
5.712566,20.585346,-0.416591,8.0,49.827606,24.042818,355.0,NaN,7.38,3.0,222.1,24 / 28,152536,2020-03-14 13:30:40:340
3.289633,-14.925453,-3.65834,8.0,49.827606,24.042818,355.0,NaN,7.38,3.0,222.1,24 / 28,153037,2020-03-14 13:30:40:841
3.457227,12.210428,4.472369,8.0,49.827606,24.042818,355.0,NaN,7.38,3.0,222.1,22 / 27,153536,2020-03-14 13:30:41:340
34.69677,34.49566,8.916007,8.0,49.827606,24.042818,355.0,NaN,7.38,3.0,222.1,22 / 27,154037,2020-03-14 13:30:41:841
5.080496,-6.124367,0.392649,8.0,49.827606,24.042818,355.0,NaN,7.38,3.0,222.1,23 / 28,154536,2020-03-14 13:30:42:340
-9.332599,4.582502,5.822699,8.0,49.827606,24.042818,355.0,NaN,7.38,3.0,222.1,23 / 28,155036,2020-03-14 13:30:42:840
18.26297,18.626888,-2.657564,8.0,49.827606,24.042818,355.0,NaN,7.38,3.0,222.1,21 / 28,155537,2020-03-14 13:30:43:341
10.333375,-17.310078,-4.103661,8.0,49.827606,24.042818,355.0,NaN,7.38,3.0,222.1,21 / 28,156036,2020-03-14 13:30:43:840
5.736508,20.087353,9.543288,8.0,49.827606,24.042818,355.0,NaN,7.38,3.0,222.1,24 / 28,156536,2020-03-14 13:30:44:340
10.031705,26.21172,12.109872,8.0,49.827606,24.042818,355.0,NaN,7.38,3.0,222.1,24 / 28,157036,2020-03-14 13:30:44:840
2.533065,-6.607996,-6.258443,8.0,49.827606,24.042818,355.0,NaN,7.38,3.0,222.1,22 / 28,157536,2020-03-14 13:30:45:340
3.174712,10.060435,7.331046,8.0,49.827606,24.042818,355.0,NaN,7.38,3.0,222.1,22 / 28,158037,2020-03-14 13:30:45:841
15.849615,18.59337,-3.193865,8.0,49.827606,24.042818,355.0,NaN,7.38,3.0,222.1,22 / 28,158537,2020-03-14 13:30:46:341
7.556101,6.473922,-1.719037,8.0,49.827606,24.042818,355.0,NaN,7.38,3.0,222.1,22 / 28,159036,2020-03-14 13:30:46:840
-4.362235,5.956774,-1.642422,8.0,49.827606,24.042818,355.0,NaN,7.38,3.0,222.1,23 / 28,159536,2020-03-14 13:30:47:340
3.246538,-15.873557,-3.385401,8.0,49.827606,24.042818,355.0,NaN,7.38,3.0,222.1,23 / 28,160036,2020-03-14 13:30:47:840
19.172768,29.879637,13.139379,8.0,49.827606,24.042818,355.0,NaN,7.38,3.0,222.1,22 / 28,160536,2020-03-14 13:30:48:340
-5.463568,7.656657,4.036624,8.0,49.827606,24.042818,355.0,NaN,7.38,3.0,222.1,22 / 28,161036,2020-03-14 13:30:48:840
19.22544,1.024718,1.37906,8.0,49.827606,24.042818,355.0,NaN,7.38,3.0,222.1,24 / 28,161537,2020-03-14 13:30:49:341
19.249382,11.942278,-3.77805,8.0,49.827606,24.042818,355.0,NaN,7.38,3.0,222.1,24 / 28,162036,2020-03-14 13:30:49:840
-4.908113,2.427721,3.404555,8.0,49.827606,24.042818,355.0,NaN,7.38,3.0,222.1,23 / 27,162536,2020-03-14 13:30:50:340
1.608904,-18.334797,-0.469264,8.0,49.827606,24.042818,355.0,NaN,7.38,3.0,222.1,23 / 27,163036,2020-03-14 13:30:50:840
10.745177,22.610842,12.971785,8.0,49.827606,24.042818,355.0,NaN,7.38,3.0,222.1,23 / 27,163536,2020-03-14 13:30:51:340
5.81791,18.459295,-1.450886,8.0,49.827606,24.042818,355.0,NaN,7.38,3.0,222.1,23 / 28,164036,2020-03-14 13:30:51:840
0.42138,-14.772224,-0.502782,8.0,49.827606,24.042818,355.0,NaN,7.38,3.0,222.1,22 / 28,164536,2020-03-14 13:30:52:340
16.323668,7.364565,-0.296881,8.0,49.827606,24.042818,355.0,NaN,7.38,3.0,222.1,22 / 28,165037,2020-03-14 13:30:52:841
-1.565808,8.044518,-4.683058,8.0,49.827606,24.042818,355.0,NaN,7.38,3.0,222.1,24 / 27,165536,2020-03-14 13:30:53:340
-1.532289,-23.324312,-4.46758,8.0,49.827606,24.042818,355.0,NaN,7.38,3.0,222.1,24 / 27,166036,2020-03-14 13:30:53:840
5.315128,27.514166,7.134722,8.0,49.827606,24.042818,355.0,NaN,7.38,3.0,222.1,24 / 28,166536,2020-03-14 13:30:54:340
0.373495,15.86398,-5.286397,8.0,49.827606,24.042818,355.0,NaN,7.38,3.0,222.1,24 / 28,167037,2020-03-14 13:30:54:841
3.327941,-8.178592,-4.151545,8.0,49.827606,24.042818,355.0,NaN,7.38,3.0,222.1,23 / 26,167536,2020-03-14 13:30:55:340
-0.316035,9.442732,8.298303,8.0,49.827606,24.042818,355.0,NaN,7.38,3.0,222.1,23 / 26,168036,2020-03-14 13:30:55:840
36.85155,31.771057,5.343858,8.0,49.827606,24.042818,355.0,NaN,7.38,3.0,222.1,23 / 27,168536,2020-03-14 13:30:56:340
7.225701,3.117251,-0.311246,8.0,49.827606,24.042818,355.0,NaN,7.38,3.0,222.1,23 / 27,169037,2020-03-14 13:30:56:841
12.86644,26.762386,8.154651,8.0,49.827606,24.042818,355.0,NaN,7.38,3.0,222.1,24 / 28,169536,2020-03-14 13:30:57:340
4.898537,20.082563,-2.073379,8.0,49.827606,24.042818,355.0,NaN,7.38,3.0,222.1,24 / 28,170036,2020-03-14 13:30:57:840
2.121263,-8.896853,-4.979939,8.0,49.827606,24.042818,355.0,NaN,7.38,3.0,222.1,24 / 28,170536,2020-03-14 13:30:58:340
1.61848,10.34774,4.879383,8.0,49.827606,24.042818,355.0,NaN,7.38,3.0,222.1,24 / 28,171037,2020-03-14 13:30:58:841
34.54354,34.96492,6.785168,8.0,49.827606,24.042818,355.0,NaN,7.38,3.0,222.1,21 / 27,171536,2020-03-14 13:30:59:340
5.822699,3.514688,-1.321599,8.0,49.827606,24.042818,355.0,NaN,7.38,3.0,222.1,21 / 27,172036,2020-03-14 13:30:59:840
-2.470816,6.009446,-2.882619,8.0,49.827606,24.042818,355.0,NaN,7.38,3.0,222.1,22 / 27,172537,2020-03-14 13:31:00:341
6.248867,-8.810662,-4.817134,8.0,49.827606,24.042818,355.0,NaN,7.38,3.0,222.1,22 / 27,173036,2020-03-14 13:31:00:840
33.097443,30.511707,7.015011,8.0,49.827606,24.042818,355.0,NaN,7.38,3.0,222.1,21 / 28,173536,2020-03-14 13:31:01:340
-2.643199,6.445191,3.883395,8.0,49.827606,24.042818,355.0,NaN,7.38,3.0,222.1,21 / 28,174036,2020-03-14 13:31:01:840
26.393679,27.514166,-10.050858,8.0,49.827606,24.042818,355.0,NaN,7.38,3.0,222.1,23 / 27,174536,2020-03-14 13:31:02:340
15.270219,9.840169,7.714118,8.0,49.827606,24.042818,355.0,NaN,7.38,3.0,222.1,23 / 27,175036,2020-03-14 13:31:02:840
-0.866701,8.839393,-1.177947,8.0,49.827606,24.042818,355.0,NaN,7.38,3.0,222.1,23 / 28,175536,2020-03-14 13:31:03:340
5.013459,-15.950171,2.504335,8.0,49.827606,24.042818,355.0,NaN,7.38,3.0,222.1,23 / 28,176036,2020-03-14 13:31:03:840
6.746861,11.520899,-0.732626,8.0,49.827606,24.042818,355.0,NaN,7.38,3.0,222.1,23 / 28,176536,2020-03-14 13:31:04:340
29.084763,34.806904,10.721235,8.0,49.827606,24.042818,355.0,NaN,7.38,3.0,222.1,23 / 28,177036,2020-03-14 13:31:04:840
2.461239,-4.802768,-1.891419,8.0,49.827606,24.042818,355.0,NaN,7.38,3.0,222.1,24 / 28,177537,2020-03-14 13:31:05:341
30.4734,27.715279,16.242264,8.0,49.827606,24.042818,355.0,NaN,7.38,3.0,222.1,24 / 28,178036,2020-03-14 13:31:05:840
-2.049437,12.660539,0.502782,8.0,49.827606,24.042818,355.0,NaN,7.38,3.0,222.1,21 / 28,178536,2020-03-14 13:31:06:340
1.695095,-13.263878,-1.814805,8.0,49.827606,24.042818,355.0,NaN,7.38,3.0,222.1,21 / 28,179036,2020-03-14 13:31:06:840
0.167594,8.245631,3.773262,8.0,49.827606,24.042818,355.0,NaN,7.38,3.0,222.1,24 / 28,179537,2020-03-14 13:31:07:341
25.694572,27.88766,-11.319786,8.0,49.827606,24.042818,355.0,NaN,7.38,3.0,222.1,24 / 28,180036,2020-03-14 13:31:07:840
11.520899,7.359776,-1.872266,8.0,49.827606,24.042818,355.0,NaN,7.38,3.0,222.1,21 / 27,180536,2020-03-14 13:31:08:340
-5.137956,5.827487,0.253785,8.0,49.827606,24.042818,355.0,NaN,7.38,3.0,222.1,21 / 27,181036,2020-03-14 13:31:08:840
0.90022,-13.948619,-5.018246,8.0,49.827606,24.042818,355.0,NaN,7.38,3.0,222.1,22 / 28,181536,2020-03-14 13:31:09:340
1.996764,-8.283937,0.641646,8.0,49.827606,24.042818,355.0,NaN,7.38,3.0,222.1,22 / 28,182037,2020-03-14 13:31:09:841
-2.930503,5.679047,3.385401,8.0,49.827606,24.042818,355.0,NaN,7.38,3.0,222.1,22 / 28,182537,2020-03-14 13:31:10:341
35.855564,32.647335,0.076614,8.0,49.827606,24.042818,355.0,NaN,7.38,3.0,222.1,22 / 28,183036,2020-03-14 13:31:10:840
2.839523,-5.324704,-5.961562,8.0,49.827606,24.042818,355.0,NaN,7.38,3.0,222.1,22 / 27,183536,2020-03-14 13:31:11:340
-1.235408,6.746861,3.165135,8.0,49.827606,24.042818,355.0,NaN,7.38,3.0,222.1,22 / 27,184036,2020-03-14 13:31:11:840
27.820623,26.336218,3.849877,8.0,49.827606,24.042818,355.0,NaN,7.38,3.0,222.1,19 / 26,184537,2020-03-14 13:31:12:341
11.180922,7.244855,-0.497994,8.0,49.827606,24.042818,355.0,NaN,7.38,3.0,222.1,19 / 26,185036,2020-03-14 13:31:12:840
-3.725378,8.044518,1.541866,8.0,49.827606,24.042818,355.0,NaN,7.38,3.0,222.1,21 / 27,185536,2020-03-14 13:31:13:340
-1.714248,-17.985243,-4.951209,8.0,49.827606,24.042818,355.0,NaN,7.38,3.0,222.1,21 / 27,186036,2020-03-14 13:31:13:840
31.541214,27.169401,4.151546,8.0,49.826794,24.041595,350.0,NaN,7.344,4.0,167.8,23 / 27,186536,2020-03-14 13:31:14:340
4.539407,13.967772,-11.042058,8.0,49.826794,24.041595,350.0,NaN,7.344,4.0,167.8,23 / 27,187036,2020-03-14 13:31:14:840
-1.747767,-15.59583,-2.82037,8.0,49.826794,24.041595,350.0,NaN,7.344,4.0,167.8,23 / 27,187536,2020-03-14 13:31:15:340
13.345281,8.504205,-3.758896,8.0,49.826794,24.041595,350.0,NaN,7.344,4.0,167.8,23 / 27,188037,2020-03-14 13:31:15:841
-4.343082,6.799533,4.821923,8.0,49.826794,24.041595,350.0,NaN,7.344,4.0,167.8,23 / 27,188536,2020-03-14 13:31:16:340
-2.212242,-17.161638,-5.032612,8.0,49.826794,24.041595,350.0,NaN,7.344,4.0,167.8,23 / 27,189036,2020-03-14 13:31:16:840
13.010092,26.9635,5.439626,8.0,49.826794,24.041595,350.0,NaN,7.344,4.0,167.8,22 / 27,189537,2020-03-14 13:31:17:341
4.515465,18.397045,4.132392,8.0,49.826794,24.041595,350.0,NaN,7.344,4.0,167.8,22 / 27,190036,2020-03-14 13:31:17:840
2.437297,-10.79785,-6.095637,8.0,49.826794,24.041595,350.0,NaN,7.344,4.0,167.8,22 / 27,190537,2020-03-14 13:31:18:341
1.776498,9.677363,3.055001,8.0,49.826794,24.041595,350.0,NaN,7.344,4.0,167.8,22 / 27,191036,2020-03-14 13:31:18:840
39.188293,31.560368,4.29041,8.0,49.826794,24.041595,350.0,NaN,7.344,4.0,167.8,22 / 27,191536,2020-03-14 13:31:19:340
6.459556,6.287174,1.221043,8.0,49.826794,24.041595,350.0,NaN,7.344,4.0,167.8,22 / 27,192036,2020-03-14 13:31:19:840
3.198654,12.660539,3.768474,8.0,49.826794,24.041595,350.0,NaN,7.344,4.0,167.8,22 / 27,192536,2020-03-14 13:31:20:340
12.679692,22.199038,39.082947,8.0,49.826794,24.041595,350.0,NaN,7.344,4.0,167.8,22 / 27,193036,2020-03-14 13:31:20:840
6.177041,0.995988,-2.614468,8.0,49.826794,24.041595,350.0,NaN,7.344,4.0,167.8,22 / 27,193536,2020-03-14 13:31:21:340
-4.630386,5.942409,4.635175,8.0,49.826794,24.041595,350.0,NaN,7.344,4.0,167.8,22 / 27,194036,2020-03-14 13:31:21:840
12.248735,-4.529829,-1.149217,8.0,49.826794,24.041595,350.0,NaN,7.344,4.0,167.8,24 / 27,194536,2020-03-14 13:31:22:340
29.90358,24.598028,9.586384,8.0,49.826794,24.041595,350.0,NaN,7.344,4.0,167.8,24 / 27,195037,2020-03-14 13:31:22:841
-2.231396,11.051635,1.833959,8.0,49.826794,24.041595,350.0,NaN,7.344,4.0,167.8,23 / 27,195537,2020-03-14 13:31:23:341
26.45114,27.255592,-1.872266,8.0,49.826794,24.041595,350.0,NaN,7.344,4.0,167.8,23 / 27,196036,2020-03-14 13:31:23:840
9.208099,6.756438,-3.122039,8.0,49.826794,24.041595,350.0,NaN,7.344,4.0,167.8,22 / 26,196536,2020-03-14 13:31:24:340
-4.185065,4.596867,-1.446098,8.0,49.826794,24.041595,350.0,NaN,7.344,4.0,167.8,22 / 26,197037,2020-03-14 13:31:24:841
-3.280056,-15.375564,-7.067683,8.0,49.826794,24.041595,350.0,NaN,7.344,4.0,167.8,22 / 26,197536,2020-03-14 13:31:25:340
22.380997,29.712044,11.621455,8.0,49.826794,24.041595,350.0,NaN,7.344,4.0,167.8,23 / 27,198037,2020-03-14 13:31:25:841
0.938527,15.667656,-2.288857,8.0,49.826794,24.041595,350.0,NaN,7.344,4.0,167.8,24 / 27,198536,2020-03-14 13:31:26:340
3.011906,-6.919243,-3.294421,8.0,49.826794,24.041595,350.0,NaN,7.344,4.0,167.8,24 / 27,199036,2020-03-14 13:31:26:840
-0.335188,6.339846,0.110133,8.0,49.826794,24.041595,350.0,NaN,7.344,4.0,167.8,23 / 28,199536,2020-03-14 13:31:27:340
7.551312,8.724471,-8.422802,8.0,49.826794,24.041595,350.0,NaN,7.344,4.0,167.8,23 / 28,200036,2020-03-14 13:31:27:840
22.294806,19.88145,-0.593762,8.0,49.826794,24.041595,350.0,NaN,7.344,4.0,167.8,24 / 29,200536,2020-03-14 13:31:28:340
-2.604891,9.380483,-0.201113,8.0,49.826794,24.041595,350.0,NaN,7.344,4.0,167.8,24 / 29,201036,2020-03-14 13:31:28:840
25.19179,26.379314,1.345541,8.0,49.826794,24.041595,350.0,NaN,7.344,4.0,167.8,21 / 28,201536,2020-03-14 13:31:29:340
14.283808,15.413871,1.096544,8.0,49.826794,24.041595,350.0,NaN,7.344,4.0,167.8,21 / 28,202036,2020-03-14 13:31:29:840
-1.13964,10.941502,0.895431,8.0,49.826794,24.041595,350.0,NaN,7.344,4.0,167.8,23 / 29,202536,2020-03-14 13:31:30:340
8.164228,-14.618996,-3.145981,8.0,49.826794,24.041595,350.0,NaN,7.344,4.0,167.8,23 / 29,203036,2020-03-14 13:31:30:840
1.924938,10.151415,6.042965,8.0,49.826794,24.041595,350.0,NaN,7.344,4.0,167.8,21 / 28,203536,2020-03-14 13:31:31:340
39.188293,33.64811,6.320693,8.0,49.826794,24.041595,350.0,NaN,7.344,4.0,167.8,21 / 28,204036,2020-03-14 13:31:31:840
7.723695,-2.15957,1.958457,8.0,49.826794,24.041595,350.0,NaN,7.344,4.0,167.8,24 / 29,204536,2020-03-14 13:31:32:340
-6.042965,6.138734,3.423709,8.0,49.826794,24.041595,350.0,NaN,7.344,4.0,167.8,24 / 29,205036,2020-03-14 13:31:32:840
-1.699883,-13.977349,-6.153098,8.0,49.826794,24.041595,350.0,NaN,7.344,4.0,167.8,22 / 27,205536,2020-03-14 13:31:33:340
2.082955,-7.292738,-1.436521,8.0,49.826794,24.041595,350.0,NaN,7.344,4.0,167.8,22 / 27,206036,2020-03-14 13:31:33:840
-3.093309,4.932056,1.436521,8.0,49.826794,24.041595,350.0,NaN,7.344,4.0,167.8,23 / 28,206536,2020-03-14 13:31:34:340
16.170439,4.070143,-6.900089,8.0,49.826794,24.041595,350.0,NaN,7.344,4.0,167.8,23 / 28,207036,2020-03-14 13:31:34:840
32.84366,29.233202,-3.960009,8.0,49.826794,24.041595,350.0,NaN,7.344,4.0,167.8,23 / 27,207537,2020-03-14 13:31:35:341
-11.247959,5.080496,-3.39019,8.0,49.826794,24.041595,350.0,NaN,7.344,4.0,167.8,23 / 27,208036,2020-03-14 13:31:35:840
6.354212,-14.446613,-4.213795,8.0,49.826794,24.041595,350.0,NaN,7.344,4.0,167.8,23 / 28,208536,2020-03-14 13:31:36:340
-0.517148,11.956643,0.636858,8.0,49.826794,24.041595,350.0,NaN,7.344,4.0,167.8,23 / 28,209036,2020-03-14 13:31:36:840
39.188293,39.188293,0.727837,8.0,49.826794,24.041595,350.0,NaN,7.344,4.0,167.8,23 / 28,209536,2020-03-14 13:31:37:340
2.571373,-17.24304,-1.762132,8.0,49.826794,24.041595,350.0,NaN,7.344,4.0,167.8,23 / 28,210036,2020-03-14 13:31:37:840
25.081657,24.588451,17.070658,8.0,49.826794,24.041595,350.0,NaN,7.344,4.0,167.8,24 / 28,210537,2020-03-14 13:31:38:341
2.983175,15.658079,-3.936067,8.0,49.826794,24.041595,350.0,NaN,7.344,4.0,167.8,24 / 28,211036,2020-03-14 13:31:38:840
1.053449,-10.864887,-0.775721,8.0,49.826794,24.041595,350.0,NaN,7.344,4.0,167.8,21 / 29,211536,2020-03-14 13:31:39:340
-4.429273,5.209783,5.123592,8.0,49.826794,24.041595,350.0,NaN,7.344,4.0,167.8,21 / 29,212036,2020-03-14 13:31:39:840
39.188293,31.981747,22.495918,8.0,49.826794,24.041595,350.0,NaN,7.344,4.0,167.8,24 / 28,212536,2020-03-14 13:31:40:340
6.248867,0.684742,-1.934515,8.0,49.826794,24.041595,350.0,NaN,7.344,4.0,167.8,24 / 28,213036,2020-03-14 13:31:40:840
-6.933608,4.965575,2.427721,8.0,49.826794,24.041595,350.0,NaN,7.344,4.0,167.8,24 / 28,213536,2020-03-14 13:31:41:340
4.204219,-5.540182,-4.079719,8.0,49.826794,24.041595,350.0,NaN,7.344,4.0,167.8,22 / 28,214036,2020-03-14 13:31:41:840
29.850906,29.764715,12.74673,8.0,49.826794,24.041595,350.0,NaN,7.344,4.0,167.8,24 / 28,214536,2020-03-14 13:31:42:340
-2.705448,10.534488,-2.887407,8.0,49.826794,24.041595,350.0,NaN,7.344,4.0,167.8,24 / 28,215036,2020-03-14 13:31:42:840
4.132392,-12.914324,-1.546654,8.0,49.826794,24.041595,350.0,NaN,7.344,4.0,167.8,24 / 28,215536,2020-03-14 13:31:43:340
3.347094,14.781801,7.422025,8.0,49.826794,24.041595,350.0,NaN,7.344,4.0,167.8,24 / 28,216036,2020-03-14 13:31:43:840
-4.089296,6.052542,4.266468,8.0,49.826794,24.041595,350.0,NaN,7.344,4.0,167.8,24 / 28,216536,2020-03-14 13:31:44:340
7.082049,-8.202534,-4.635174,8.0,49.826794,24.041595,350.0,NaN,7.344,4.0,167.8,24 / 28,217036,2020-03-14 13:31:44:840
25.680208,29.520508,6.373365,8.0,49.826794,24.041595,350.0,NaN,7.344,4.0,167.8,22 / 28,217536,2020-03-14 13:31:45:340
-6.952761,8.2169,-4.180276,8.0,49.826794,24.041595,350.0,NaN,7.344,4.0,167.8,22 / 28,218036,2020-03-14 13:31:45:840
3.763685,-15.298949,4.793192,8.0,49.826794,24.041595,350.0,NaN,7.344,4.0,167.8,23 / 28,218537,2020-03-14 13:31:46:341
6.636728,10.869676,4.735731,8.0,49.826794,24.041595,350.0,NaN,7.344,4.0,167.8,23 / 28,219036,2020-03-14 13:31:46:840
38.71424,31.833305,2.964022,8.0,49.826794,24.041595,350.0,NaN,7.344,4.0,167.8,23 / 28,219536,2020-03-14 13:31:47:340
3.53863,-6.995857,-5.899313,8.0,49.826794,24.041595,350.0,NaN,7.344,4.0,167.8,23 / 28,220036,2020-03-14 13:31:47:840
-4.252102,9.562442,4.486734,8.0,49.826794,24.041595,350.0,NaN,7.344,4.0,167.8,24 / 28,220536,2020-03-14 13:31:48:340
16.692375,7.426814,4.644751,8.0,49.826794,24.041595,350.0,NaN,7.344,4.0,167.8,24 / 28,221036,2020-03-14 13:31:48:840
3.610456,-16.869543,-1.522712,8.0,49.826794,24.041595,350.0,NaN,7.344,4.0,167.8,23 / 28,221536,2020-03-14 13:31:49:340
4.299987,12.224793,10.97502,8.0,49.826794,24.041595,350.0,NaN,7.344,4.0,167.8,23 / 28,222037,2020-03-14 13:31:49:841
11.985373,24.396915,10.175357,8.0,49.826794,24.041595,350.0,NaN,7.344,4.0,167.8,23 / 28,222536,2020-03-14 13:31:50:340
4.663905,-5.06613,-3.873818,8.0,49.826794,24.041595,350.0,NaN,7.344,4.0,167.8,23 / 28,223036,2020-03-14 13:31:50:840
-3.126827,11.171345,6.038177,8.0,49.826794,24.041595,350.0,NaN,7.344,4.0,167.8,22 / 28,223536,2020-03-14 13:31:51:340
13.900735,-1.04866,-0.292093,8.0,49.826794,24.041595,350.0,NaN,7.344,4.0,167.8,22 / 28,224036,2020-03-14 13:31:51:840
19.900604,13.771448,4.568137,8.0,49.826794,24.041595,350.0,NaN,7.344,4.0,167.8,24 / 28,224536,2020-03-14 13:31:52:340
-4.960786,2.274492,-0.402226,8.0,49.826794,24.041595,350.0,NaN,7.344,4.0,167.8,24 / 28,225036,2020-03-14 13:31:52:840
36.97605,34.170048,10.43872,8.0,49.826794,24.041595,350.0,NaN,7.344,4.0,167.8,24 / 28,225536,2020-03-14 13:31:53:340
12.061988,6.967127,-0.962469,8.0,49.826794,24.041595,350.0,NaN,7.344,4.0,167.8,24 / 28,226036,2020-03-14 13:31:53:840
-4.989516,4.64954,2.719813,8.0,49.826794,24.041595,350.0,NaN,7.344,4.0,167.8,24 / 28,226536,2020-03-14 13:31:54:340
-0.172383,-18.315643,-8.987833,8.0,49.826794,24.041595,350.0,NaN,7.344,4.0,167.8,24 / 28,227036,2020-03-14 13:31:54:840
10.668563,18.818426,10.596737,8.0,49.826794,24.041595,350.0,NaN,7.344,4.0,167.8,24 / 28,227536,2020-03-14 13:31:55:340
4.55856,18.119318,3.62961,8.0,49.826794,24.041595,350.0,NaN,7.344,4.0,167.8,24 / 28,228036,2020-03-14 13:31:55:840
-0.009577,-15.332468,-4.276044,8.0,49.826794,24.041595,350.0,NaN,7.344,4.0,167.8,24 / 28,228537,2020-03-14 13:31:56:341
1.115698,10.548853,-1.723825,8.0,49.826794,24.041595,350.0,NaN,7.344,4.0,167.8,24 / 28,229036,2020-03-14 13:31:56:840
-3.86903,5.99987,1.35033,8.0,49.826794,24.041595,350.0,NaN,7.344,4.0,167.8,22 / 28,229537,2020-03-14 13:31:57:341
-1.628057,-19.58457,-7.321469,8.0,49.826794,24.041595,350.0,NaN,7.344,4.0,167.8,22 / 28,230036,2020-03-14 13:31:57:840
3.428497,22.132,7.364565,8.0,49.826794,24.041595,350.0,NaN,7.344,4.0,167.8,23 / 28,230536,2020-03-14 13:31:58:340
4.242526,18.435352,-1.096544,8.0,49.826794,24.041595,350.0,NaN,7.344,4.0,167.8,23 / 28,231036,2020-03-14 13:31:58:840
1.244985,-11.032481,-7.062895,8.0,49.826794,24.041595,350.0,NaN,7.344,4.0,167.8,21 / 27,231536,2020-03-14 13:31:59:340
-1.388637,7.97748,4.970363,8.0,49.826794,24.041595,350.0,NaN,7.344,4.0,167.8,21 / 27,232036,2020-03-14 13:31:59:840
22.10327,23.290794,-2.509123,8.0,49.826794,24.041595,350.0,NaN,7.344,4.0,167.8,24 / 28,232537,2020-03-14 13:32:00:341
10.28549,5.57849,5.899313,8.0,49.826794,24.041595,350.0,NaN,7.344,4.0,167.8,24 / 28,233036,2020-03-14 13:32:00:840
-3.155558,5.928044,-0.225055,8.0,49.826794,24.041595,350.0,NaN,7.344,4.0,167.8,22 / 28,233537,2020-03-14 13:32:01:341
4.007894,-14.657303,2.207454,8.0,49.826794,24.041595,350.0,NaN,7.344,4.0,167.8,22 / 28,234036,2020-03-14 13:32:01:840
8.633492,5.066131,-3.174711,8.0,49.826042,24.040335,347.0,NaN,6.336,4.0,224.3,21 / 27,234537,2020-03-14 13:32:02:341
-3.361459,4.783615,-0.229843,8.0,49.826042,24.040335,347.0,NaN,6.336,4.0,224.3,21 / 27,235036,2020-03-14 13:32:02:840
0.603339,-14.45619,-7.220912,8.0,49.826042,24.040335,347.0,NaN,6.336,4.0,224.3,22 / 27,235536,2020-03-14 13:32:03:340
14.609419,28.46227,9.380483,8.0,49.826042,24.040335,347.0,NaN,6.336,4.0,224.3,22 / 27,236036,2020-03-14 13:32:03:840
9.734824,21.17432,6.306328,8.0,49.826042,24.040335,347.0,NaN,6.336,4.0,224.3,23 / 27,236536,2020-03-14 13:32:04:340
5.884948,-5.118803,-1.939303,8.0,49.826042,24.040335,347.0,NaN,6.336,4.0,224.3,23 / 27,237037,2020-03-14 13:32:04:841
-2.432509,8.178593,-1.187524,8.0,49.826042,24.040335,347.0,NaN,6.336,4.0,224.3,21 / 26,237536,2020-03-14 13:32:05:340
6.454768,-1.177947,-3.524265,8.0,49.826042,24.040335,347.0,NaN,6.336,4.0,224.3,21 / 26,238036,2020-03-14 13:32:05:840
2.863465,-3.385401,-4.405331,8.0,49.826042,24.040335,347.0,NaN,6.336,4.0,224.3,23 / 26,238537,2020-03-14 13:32:06:341
-0.311246,7.532159,-1.446098,8.0,49.826042,24.040335,347.0,NaN,6.336,4.0,224.3,23 / 26,239036,2020-03-14 13:32:06:840
4.673482,-6.952761,-4.276044,8.0,49.826042,24.040335,347.0,NaN,6.336,4.0,224.3,23 / 26,239536,2020-03-14 13:32:07:340
24.904486,22.869415,10.036493,8.0,49.826042,24.040335,347.0,NaN,6.336,4.0,224.3,23 / 26,240036,2020-03-14 13:32:07:840
1.747767,10.386047,-3.610456,8.0,49.826042,24.040335,347.0,NaN,6.336,4.0,224.3,24 / 26,240536,2020-03-14 13:32:08:340
-2.96881,-11.860875,-7.785944,8.0,49.826042,24.040335,347.0,NaN,6.336,4.0,224.3,24 / 26,241036,2020-03-14 13:32:08:840
8.350976,19.598934,5.947197,8.0,49.826042,24.040335,347.0,NaN,6.336,4.0,224.3,23 / 26,241536,2020-03-14 13:32:09:340
-0.881066,8.236054,-2.920926,8.0,49.826042,24.040335,347.0,NaN,6.336,4.0,224.3,23 / 26,242037,2020-03-14 13:32:09:841
30.904356,25.316288,-4.491522,8.0,49.826042,24.040335,347.0,NaN,6.336,4.0,224.3,22 / 27,242536,2020-03-14 13:32:10:340
4.386178,-14.322115,-3.696647,8.0,49.826042,24.040335,347.0,NaN,6.336,4.0,224.3,22 / 27,243036,2020-03-14 13:32:10:840
20.829556,33.097443,13.364434,8.0,49.826042,24.040335,347.0,NaN,6.336,4.0,224.3,20 / 27,243536,2020-03-14 13:32:11:340
1.144428,17.266985,4.252103,8.0,49.826042,24.040335,347.0,NaN,6.336,4.0,224.3,20 / 27,244037,2020-03-14 13:32:11:841
-0.632069,-6.607996,-3.476381,8.0,49.826042,24.040335,347.0,NaN,6.336,4.0,224.3,24 / 27,244536,2020-03-14 13:32:12:340
1.130063,1.149217,3.394978,8.0,49.826042,24.040335,347.0,NaN,6.336,4.0,224.3,24 / 27,245037,2020-03-14 13:32:12:841
0.383072,14.84405,12.004527,8.0,49.826042,24.040335,347.0,NaN,6.336,4.0,224.3,24 / 27,245536,2020-03-14 13:32:13:340
4.735731,4.299987,-23.084892,8.0,49.826042,24.040335,347.0,NaN,6.336,4.0,224.3,24 / 27,246036,2020-03-14 13:32:13:840
-0.47884,7.240066,0.574608,8.0,49.826042,24.040335,347.0,NaN,6.336,4.0,224.3,22 / 27,246536,2020-03-14 13:32:14:340
2.494758,11.803414,1.307234,8.0,49.826042,24.040335,347.0,NaN,6.336,4.0,224.3,22 / 27,247037,2020-03-14 13:32:14:841
20.039469,12.20564,-9.68694,8.0,49.826042,24.040335,347.0,NaN,6.336,4.0,224.3,23 / 28,247536,2020-03-14 13:32:15:340
3.260903,-0.215478,1.474828,8.0,49.826042,24.040335,347.0,NaN,6.336,4.0,224.3,23 / 28,248036,2020-03-14 13:32:15:840
-3.227384,7.915231,-2.566584,8.0,49.826042,24.040335,347.0,NaN,6.336,4.0,224.3,22 / 28,248537,2020-03-14 13:32:16:341
17.51598,21.447258,-0.962469,8.0,49.826042,24.040335,347.0,NaN,6.336,4.0,224.3,22 / 28,249036,2020-03-14 13:32:16:840
-0.579397,-7.814674,-0.670376,8.0,49.826042,24.040335,347.0,NaN,6.336,4.0,224.3,22 / 27,249536,2020-03-14 13:32:17:340
3.902549,18.86152,12.028469,8.0,49.826042,24.040335,347.0,NaN,6.336,4.0,224.3,22 / 27,250036,2020-03-14 13:32:17:840
7.747637,23.72175,1.910573,8.0,49.826042,24.040335,347.0,NaN,6.336,4.0,224.3,24 / 28,250536,2020-03-14 13:32:18:340
-2.432509,-7.359776,-1.101333,8.0,49.826042,24.040335,347.0,NaN,6.336,4.0,224.3,24 / 28,251036,2020-03-14 13:32:18:840
-2.408567,6.766014,-0.177171,8.0,49.826042,24.040335,347.0,NaN,6.336,4.0,224.3,24 / 28,251536,2020-03-14 13:32:19:340
-3.643975,6.23929,-1.369483,8.0,49.826042,24.040335,347.0,NaN,6.336,4.0,224.3,24 / 28,252037,2020-03-14 13:32:19:841
16.366762,2.896984,-9.854534,8.0,49.826042,24.040335,347.0,NaN,6.336,4.0,224.3,22 / 28,252536,2020-03-14 13:32:20:340
7.13951,-8.106766,0.138864,8.0,49.826042,24.040335,347.0,NaN,6.336,4.0,224.3,22 / 28,253036,2020-03-14 13:32:20:840
3.65834,3.543419,2.590526,8.0,49.826042,24.040335,347.0,NaN,6.336,4.0,224.3,23 / 28,253536,2020-03-14 13:32:21:340
27.538109,31.263483,-5.621585,8.0,49.826042,24.040335,347.0,NaN,6.336,4.0,224.3,23 / 28,254036,2020-03-14 13:32:21:840
3.442862,-20.216639,7.024588,8.0,49.826042,24.040335,347.0,NaN,6.336,4.0,224.3,22 / 28,254536,2020-03-14 13:32:22:340
-3.462016,5.975928,3.193865,8.0,49.826042,24.040335,347.0,NaN,6.336,4.0,224.3,22 / 28,255036,2020-03-14 13:32:22:840
25.143906,32.47974,9.260772,8.0,49.826042,24.040335,347.0,NaN,6.336,4.0,224.3,24 / 27,255536,2020-03-14 13:32:23:340
4.620809,-3.112462,-2.906561,8.0,49.826042,24.040335,347.0,NaN,6.336,4.0,224.3,24 / 27,256037,2020-03-14 13:32:23:841
10.927136,7.144298,-1.426944,8.0,49.826042,24.040335,347.0,NaN,6.336,4.0,224.3,22 / 27,256536,2020-03-14 13:32:24:340
-2.509123,6.775591,-0.90022,8.0,49.826042,24.040335,347.0,NaN,6.336,4.0,224.3,22 / 27,257036,2020-03-14 13:32:24:840
1.302446,-11.87524,-1.982399,8.0,49.826042,24.040335,347.0,NaN,6.336,4.0,224.3,23 / 27,257536,2020-03-14 13:32:25:340
1.144428,21.164743,9.428367,8.0,49.826042,24.040335,347.0,NaN,6.336,4.0,224.3,23 / 27,258036,2020-03-14 13:32:25:840
27.174189,29.439104,13.771448,8.0,49.826042,24.040335,347.0,NaN,6.336,4.0,224.3,24 / 27,258536,2020-03-14 13:32:26:340
4.228161,-3.960009,1.01993,8.0,49.826042,24.040335,347.0,NaN,6.336,4.0,224.3,24 / 27,259037,2020-03-14 13:32:26:841
-0.890643,8.475474,5.31034,8.0,49.826042,24.040335,347.0,NaN,6.336,4.0,224.3,24 / 27,259536,2020-03-14 13:32:27:340
-2.485181,-0.335188,-7.656657,8.0,49.826042,24.040335,347.0,NaN,6.336,4.0,224.3,24 / 27,260036,2020-03-14 13:32:27:840
27.102364,19.977219,7.613562,8.0,49.826042,24.040335,347.0,NaN,6.336,4.0,224.3,23 / 27,260536,2020-03-14 13:32:28:340
-3.270479,8.236054,1.49877,8.0,49.826042,24.040335,347.0,NaN,6.336,4.0,224.3,23 / 27,261036,2020-03-14 13:32:28:840
37.0383,34.409466,19.407398,8.0,49.826042,24.040335,347.0,NaN,6.336,4.0,224.3,23 / 27,261537,2020-03-14 13:32:29:341
3.878607,0.339977,-1.905785,8.0,49.826042,24.040335,347.0,NaN,6.336,4.0,224.3,23 / 27,262037,2020-03-14 13:32:29:841
-4.122815,6.172252,1.063026,8.0,49.826042,24.040335,347.0,NaN,6.336,4.0,224.3,23 / 26,262537,2020-03-14 13:32:30:341
-1.632845,-13.268666,-5.640739,8.0,49.826042,24.040335,347.0,NaN,6.336,4.0,224.3,23 / 26,263036,2020-03-14 13:32:30:840
18.770542,24.995466,17.209522,8.0,49.826042,24.040335,347.0,NaN,6.336,4.0,224.3,23 / 27,263536,2020-03-14 13:32:31:340
1.867477,16.280571,4.209007,8.0,49.826042,24.040335,347.0,NaN,6.336,4.0,224.3,23 / 27,264036,2020-03-14 13:32:31:840
2.413355,-9.476251,-5.837064,8.0,49.826042,24.040335,347.0,NaN,6.336,4.0,224.3,23 / 27,264536,2020-03-14 13:32:32:340
-4.003105,3.801993,9.002198,8.0,49.826042,24.040335,347.0,NaN,6.336,4.0,224.3,23 / 27,265036,2020-03-14 13:32:32:840
-5.540182,6.105214,-0.067038,8.0,49.826042,24.040335,347.0,NaN,6.336,4.0,224.3,23 / 27,265537,2020-03-14 13:32:33:341
6.191406,-8.307879,-3.026271,8.0,49.826042,24.040335,347.0,NaN,6.336,4.0,224.3,23 / 27,266036,2020-03-14 13:32:33:840
35.66403,23.305159,21.313183,8.0,49.826042,24.040335,347.0,NaN,6.336,4.0,224.3,24 / 27,266536,2020-03-14 13:32:34:340
-3.596091,9.351752,-0.062249,8.0,49.826042,24.040335,347.0,NaN,6.336,4.0,224.3,24 / 27,267036,2020-03-14 13:32:34:840
5.075708,-14.269443,-0.823605,8.0,49.826042,24.040335,347.0,NaN,6.336,4.0,224.3,23 / 27,267536,2020-03-14 13:32:35:340
3.505111,9.892841,8.585608,8.0,49.826042,24.040335,347.0,NaN,6.336,4.0,224.3,23 / 27,268036,2020-03-14 13:32:35:840
27.878084,28.13187,36.32004,8.0,49.826042,24.040335,347.0,NaN,6.336,4.0,224.3,23 / 27,268536,2020-03-14 13:32:36:340
3.610456,-3.610456,-1.671153,8.0,49.826042,24.040335,347.0,NaN,6.336,4.0,224.3,23 / 27,269036,2020-03-14 13:32:36:840
-3.380613,6.339846,-1.790863,8.0,49.826042,24.040335,347.0,NaN,6.336,4.0,224.3,23 / 26,269536,2020-03-14 13:32:37:340
3.375825,19.440918,1.383849,8.0,49.826042,24.040335,347.0,NaN,6.336,4.0,224.3,23 / 26,270037,2020-03-14 13:32:37:841
3.165135,-11.133038,-2.173935,8.0,49.826042,24.040335,347.0,NaN,6.336,4.0,224.3,24 / 26,270537,2020-03-14 13:32:38:341
-1.513135,5.726931,6.105214,8.0,49.826042,24.040335,347.0,NaN,6.336,4.0,224.3,24 / 26,271036,2020-03-14 13:32:38:840
22.67788,25.52219,2.073379,8.0,49.826042,24.040335,347.0,NaN,6.336,4.0,224.3,22 / 26,271539,2020-03-14 13:32:39:343
19.85272,15.658079,-4.501099,8.0,49.826042,24.040335,347.0,NaN,6.336,4.0,224.3,22 / 26,272036,2020-03-14 13:32:39:840
-0.512359,7.101202,-1.015141,0.0,49.826042,24.040335,347.0,NaN,6.336,4.0,224.3,24 / 26,272536,2020-03-14 13:32:40:340
5.621586,-10.601525,-3.232172,8.0,49.826042,24.040335,347.0,NaN,6.336,4.0,224.3,24 / 26,273036,2020-03-14 13:32:40:840
-0.584185,6.004658,2.092532,8.0,49.826042,24.040335,347.0,NaN,6.336,4.0,224.3,23 / 26,273536,2020-03-14 13:32:41:340
29.6881,33.68163,12.751518,8.0,49.826042,24.040335,347.0,NaN,6.336,4.0,224.3,23 / 26,274036,2020-03-14 13:32:41:840
1.13964,-14.753071,-1.862689,8.0,49.826042,24.040335,347.0,NaN,6.336,4.0,224.3,23 / 27,274536,2020-03-14 13:32:42:340
3.691859,22.452824,2.772486,8.0,49.826042,24.040335,347.0,NaN,6.336,4.0,224.3,23 / 27,275036,2020-03-14 13:32:42:840
38.283287,31.91471,7.589619,8.0,49.826042,24.040335,347.0,NaN,6.336,4.0,224.3,23 / 27,275536,2020-03-14 13:32:43:340
7.637504,5.415684,4.587291,8.0,49.826042,24.040335,347.0,NaN,6.336,4.0,224.3,23 / 27,276037,2020-03-14 13:32:43:841
3.126828,10.807426,-1.532289,8.0,49.826042,24.040335,347.0,NaN,6.336,4.0,224.3,23 / 27,276536,2020-03-14 13:32:44:340
-3.117251,-7.910442,-4.400542,8.0,49.826042,24.040335,347.0,NaN,6.336,4.0,224.3,23 / 27,277036,2020-03-14 13:32:44:840
-2.37026,6.651093,-1.254562,8.0,49.826042,24.040335,347.0,NaN,6.336,4.0,224.3,24 / 27,277536,2020-03-14 13:32:45:340
18.459295,17.362753,2.418144,8.0,49.826042,24.040335,347.0,NaN,6.336,4.0,224.3,24 / 27,278036,2020-03-14 13:32:45:840
2.829947,-10.208876,-5.525817,8.0,49.826042,24.040335,347.0,NaN,6.336,4.0,224.3,24 / 27,278536,2020-03-14 13:32:46:340
3.883395,18.53112,5.870583,8.0,49.826042,24.040335,347.0,NaN,6.336,4.0,224.3,24 / 27,279036,2020-03-14 13:32:46:840
20.72421,26.173412,2.911349,8.0,49.826042,24.040335,347.0,NaN,6.336,4.0,224.3,24 / 27,279536,2020-03-14 13:32:47:340
0.957681,-0.373495,5.544971,8.0,49.826042,24.040335,347.0,NaN,6.336,4.0,224.3,24 / 27,280036,2020-03-14 13:32:47:840
-2.825158,3.639187,-2.245761,8.0,49.826042,24.040335,347.0,NaN,6.336,4.0,224.3,23 / 27,280536,2020-03-14 13:32:48:340
15.198392,18.65562,-14.432248,8.0,49.826042,24.040335,347.0,NaN,6.336,4.0,224.3,23 / 27,281036,2020-03-14 13:32:48:840
2.025495,1.814805,-3.562572,8.0,49.826042,24.040335,347.0,NaN,6.336,4.0,224.3,23 / 28,281537,2020-03-14 13:32:49:341
1.000776,6.962339,0.857124,8.0,49.826042,24.040335,347.0,NaN,6.336,4.0,224.3,23 / 28,282036,2020-03-14 13:32:49:840
-0.440533,-6.732495,-4.007893,8.0,49.826042,24.040335,347.0,NaN,6.336,4.0,224.3,24 / 28,282536,2020-03-14 13:32:50:340
9.255983,5.856218,-3.701436,8.0,49.825695,24.038866,338.0,NaN,4.788,3.5,237.8,24 / 28,283036,2020-03-14 13:32:50:840
0.857124,19.790472,1.489194,8.0,49.825695,24.038866,338.0,NaN,4.788,3.5,237.8,23 / 28,283536,2020-03-14 13:32:51:340
1.666364,14.053964,6.224925,8.0,49.825695,24.038866,338.0,NaN,4.788,3.5,237.8,23 / 28,284036,2020-03-14 13:32:51:840
-3.045424,-15.907076,-1.891419,8.0,49.825695,24.038866,338.0,NaN,4.788,3.5,237.8,24 / 28,284537,2020-03-14 13:32:52:341
-2.078167,10.572795,1.805228,8.0,49.825695,24.038866,338.0,NaN,4.788,3.5,237.8,24 / 28,285036,2020-03-14 13:32:52:840
39.04464,37.952885,14.116213,8.0,49.825695,24.038866,338.0,NaN,4.788,3.5,237.8,22 / 27,285536,2020-03-14 13:32:53:340
0.172383,-4.34787,-1.115698,8.0,49.825695,24.038866,338.0,NaN,4.788,3.5,237.8,22 / 27,286036,2020-03-14 13:32:53:840
2.317587,6.071696,0.636858,8.0,49.825695,24.038866,338.0,NaN,4.788,3.5,237.8,23 / 28,286536,2020-03-14 13:32:54:340
30.037655,31.378407,-11.080365,8.0,49.825695,24.038866,338.0,NaN,4.788,3.5,237.8,23 / 28,287036,2020-03-14 13:32:54:840
2.183512,-7.953538,-3.270479,8.0,49.825695,24.038866,338.0,NaN,4.788,3.5,237.8,23 / 28,287537,2020-03-14 13:32:55:341
20.30762,23.774424,2.829947,8.0,49.825695,24.038866,338.0,NaN,4.788,3.5,237.8,23 / 28,288036,2020-03-14 13:32:55:840
24.41607,26.551697,-13.565547,8.0,49.825695,24.038866,338.0,NaN,4.788,3.5,237.8,23 / 28,288536,2020-03-14 13:32:56:340
-3.145981,-5.583278,-1.465251,8.0,49.825695,24.038866,338.0,NaN,4.788,3.5,237.8,23 / 28,289037,2020-03-14 13:32:56:841
0.110133,6.579266,0.622492,8.0,49.825695,24.038866,338.0,NaN,4.788,3.5,237.8,24 / 28,289536,2020-03-14 13:32:57:340
23.008278,17.30529,-3.011906,8.0,49.825695,24.038866,338.0,NaN,4.788,3.5,237.8,24 / 28,290037,2020-03-14 13:32:57:841
3.768474,1.747767,-2.652775,8.0,49.825695,24.038866,338.0,NaN,4.788,3.5,237.8,24 / 28,290536,2020-03-14 13:32:58:340
-2.212242,7.747637,4.376601,8.0,49.825695,24.038866,338.0,NaN,4.788,3.5,237.8,24 / 28,291036,2020-03-14 13:32:58:840
2.633622,-12.033257,-10.807426,8.0,49.825695,24.038866,338.0,NaN,4.788,3.5,237.8,22 / 27,291536,2020-03-14 13:32:59:340
13.924677,30.257921,10.817003,8.0,49.825695,24.038866,338.0,NaN,4.788,3.5,237.8,22 / 27,292036,2020-03-14 13:32:59:840
-1.182736,5.746084,5.573702,8.0,49.825695,24.038866,338.0,NaN,4.788,3.5,237.8,23 / 28,292536,2020-03-14 13:33:00:340
13.876793,5.291186,-6.449979,8.0,49.825695,24.038866,338.0,NaN,4.788,3.5,237.8,23 / 28,293036,2020-03-14 13:33:00:840
27.059269,19.91497,-0.842759,8.0,49.825695,24.038866,338.0,NaN,4.788,3.5,237.8,24 / 28,293537,2020-03-14 13:33:01:341
-4.175488,7.489063,-0.497994,8.0,49.825695,24.038866,338.0,NaN,4.788,3.5,237.8,24 / 28,294036,2020-03-14 13:33:01:840
39.188293,39.188293,25.287558,8.0,49.825695,24.038866,338.0,NaN,4.788,3.5,237.8,23 / 28,294536,2020-03-14 13:33:02:340
12.650962,5.674258,4.074931,8.0,49.825695,24.038866,338.0,NaN,4.788,3.5,237.8,23 / 28,295036,2020-03-14 13:33:02:840
-3.730166,7.072472,-2.293645,8.0,49.825695,24.038866,338.0,NaN,4.788,3.5,237.8,21 / 28,295536,2020-03-14 13:33:03:340
-2.48997,-6.248866,-15.634137,8.0,49.825695,24.038866,338.0,NaN,4.788,3.5,237.8,21 / 28,296036,2020-03-14 13:33:03:840
1.556231,-13.532028,-1.072602,8.0,49.825695,24.038866,338.0,NaN,4.788,3.5,237.8,20 / 27,296537,2020-03-14 13:33:04:341
6.708554,12.129025,6.947974,8.0,49.825695,24.038866,338.0,NaN,4.788,3.5,237.8,20 / 27,297036,2020-03-14 13:33:04:840
13.13459,27.940334,-4.022259,8.0,49.825695,24.038866,338.0,NaN,4.788,3.5,237.8,18 / 26,297536,2020-03-14 13:33:05:340
-1.508347,-20.767305,-2.628833,8.0,49.825695,24.038866,338.0,NaN,4.788,3.5,237.8,18 / 26,298036,2020-03-14 13:33:05:840
-0.129287,6.33027,8.935161,8.0,49.825695,24.038866,338.0,NaN,4.788,3.5,237.8,17 / 26,298536,2020-03-14 13:33:06:340
32.08709,37.28251,15.251065,8.0,49.825695,24.038866,338.0,NaN,4.788,3.5,237.8,17 / 26,299036,2020-03-14 13:33:06:840
2.054225,-1.23062,1.795651,8.0,49.825695,24.038866,338.0,NaN,4.788,3.5,237.8,18 / 25,299536,2020-03-14 13:33:07:340
-7.005434,6.488287,-0.067038,8.0,49.825695,24.038866,338.0,NaN,4.788,3.5,237.8,18 / 25,300036,2020-03-14 13:33:07:840
14.705187,10.912771,0.067038,8.0,49.825695,24.038866,338.0,NaN,4.788,3.5,237.8,17 / 25,300536,2020-03-14 13:33:08:340
2.327164,-11.789049,-2.595315,8.0,49.825695,24.038866,338.0,NaN,4.788,3.5,237.8,17 / 25,301036,2020-03-14 13:33:08:840
-4.639962,8.288726,5.295975,8.0,49.825695,24.038866,338.0,NaN,4.788,3.5,237.8,19 / 26,301536,2020-03-14 13:33:09:340
29.783869,37.12928,12.076353,8.0,49.825695,24.038866,338.0,NaN,4.788,3.5,237.8,19 / 26,302036,2020-03-14 13:33:09:840
7.757214,7.034165,-1.824382,8.0,49.825695,24.038866,338.0,NaN,4.788,3.5,237.8,18 / 26,302537,2020-03-14 13:33:10:341
-2.920926,6.517017,0.435745,8.0,49.825695,24.038866,338.0,NaN,4.788,3.5,237.8,18 / 26,303036,2020-03-14 13:33:10:840
-3.035848,-14.408306,-2.499546,8.0,49.825695,24.038866,338.0,NaN,4.788,3.5,237.8,20 / 27,303537,2020-03-14 13:33:11:341
10.050858,30.090326,7.647081,8.0,49.825695,24.038866,338.0,NaN,4.788,3.5,237.8,20 / 27,304036,2020-03-14 13:33:11:840
0.186748,17.697939,11.075577,8.0,49.825695,24.038866,338.0,NaN,4.788,3.5,237.8,20 / 27,304536,2020-03-14 13:33:12:340
3.916914,-11.645397,-5.995081,8.0,49.825695,24.038866,338.0,NaN,4.788,3.5,237.8,20 / 27,305036,2020-03-14 13:33:12:840
14.796166,10.251971,-0.555455,8.0,49.825695,24.038866,338.0,NaN,4.788,3.5,237.8,19 / 27,305536,2020-03-14 13:33:13:340
-6.727707,5.544971,0.038307,8.0,49.825695,24.038866,338.0,NaN,4.788,3.5,237.8,19 / 27,306036,2020-03-14 13:33:13:840
0.871489,-7.469909,-6.081272,8.0,49.825695,24.038866,338.0,NaN,4.788,3.5,237.8,19 / 27,306536,2020-03-14 13:33:14:340
22.141577,28.926744,17.080235,8.0,49.825695,24.038866,338.0,NaN,4.788,3.5,237.8,19 / 27,307036,2020-03-14 13:33:14:840
2.925715,19.033903,1.388637,8.0,49.825695,24.038866,338.0,NaN,4.788,3.5,237.8,21 / 27,307536,2020-03-14 13:33:15:340
2.710236,-10.113108,-4.965574,8.0,49.825695,24.038866,338.0,NaN,4.788,3.5,237.8,21 / 27,308036,2020-03-14 13:33:15:840
-2.600103,4.687847,4.098873,8.0,49.825695,24.038866,338.0,NaN,4.788,3.5,237.8,21 / 27,308536,2020-03-14 13:33:16:340
8.034941,-9.212888,-4.165911,8.0,49.825695,24.038866,338.0,NaN,4.788,3.5,237.8,21 / 27,309036,2020-03-14 13:33:16:840
22.318748,20.57577,6.770803,8.0,49.825695,24.038866,338.0,NaN,4.788,3.5,237.8,23 / 27,309536,2020-03-14 13:33:17:340
-0.80924,7.953538,3.476381,8.0,49.825695,24.038866,338.0,NaN,4.788,3.5,237.8,23 / 27,310037,2020-03-14 13:33:17:841
30.578745,34.620155,12.564771,8.0,49.825695,24.038866,338.0,NaN,4.788,3.5,237.8,23 / 27,310536,2020-03-14 13:33:18:340
7.800309,3.428497,-1.810016,8.0,49.825695,24.038866,338.0,NaN,4.788,3.5,237.8,23 / 27,311036,2020-03-14 13:33:18:840
-4.606444,4.654328,-0.335188,8.0,49.825695,24.038866,338.0,NaN,4.788,3.5,237.8,22 / 27,311537,2020-03-14 13:33:19:341
2.75812,-13.292608,-10.635044,8.0,49.825695,24.038866,338.0,NaN,4.788,3.5,237.8,22 / 27,312036,2020-03-14 13:33:19:840
9.279925,24.267628,9.150639,8.0,49.825695,24.038866,338.0,NaN,4.788,3.5,237.8,22 / 27,312536,2020-03-14 13:33:20:340
9.064447,23.549368,-1.072602,8.0,49.825695,24.038866,338.0,NaN,4.788,3.5,237.8,22 / 27,313037,2020-03-14 13:33:20:841
23.104046,9.696517,3.27048,8.0,49.825695,24.038866,338.0,NaN,4.788,3.5,237.8,22 / 27,313536,2020-03-14 13:33:21:340
16.960526,14.106636,-3.122039,8.0,49.825695,24.038866,338.0,NaN,4.788,3.5,237.8,22 / 27,314036,2020-03-14 13:33:21:840
-5.15711,5.93762,3.08852,8.0,49.825695,24.038866,338.0,NaN,4.788,3.5,237.8,19 / 26,314537,2020-03-14 13:33:22:341
1.92015,-20.66675,-1.465251,8.0,49.825695,24.038866,338.0,NaN,4.788,3.5,237.8,19 / 26,315036,2020-03-14 13:33:22:840
9.969456,23.597252,5.851429,8.0,49.825695,24.038866,338.0,NaN,4.788,3.5,237.8,19 / 25,315536,2020-03-14 13:33:23:340
7.623139,20.652384,5.142745,8.0,49.825695,24.038866,338.0,NaN,4.788,3.5,237.8,19 / 25,316036,2020-03-14 13:33:23:840
0.517148,-5.305551,-0.014365,8.0,49.825695,24.038866,338.0,NaN,4.788,3.5,237.8,18 / 26,316536,2020-03-14 13:33:24:340
-1.853112,7.105991,5.31034,8.0,49.825695,24.038866,338.0,NaN,4.788,3.5,237.8,18 / 26,317036,2020-03-14 13:33:24:840
-1.704672,13.259089,-2.106897,8.0,49.825695,24.038866,338.0,NaN,4.788,3.5,237.8,22 / 25,317536,2020-03-14 13:33:25:340
2.681506,-9.849746,-0.933739,8.0,49.825695,24.038866,338.0,NaN,4.788,3.5,237.8,22 / 25,318036,2020-03-14 13:33:25:840
-1.675941,7.819463,2.102109,8.0,49.825695,24.038866,338.0,NaN,4.788,3.5,237.8,20 / 26,318536,2020-03-14 13:33:26:340
37.033512,35.338417,0.301669,8.0,49.825695,24.038866,338.0,NaN,4.788,3.5,237.8,20 / 26,319036,2020-03-14 13:33:26:840
8.365341,8.2169,0.383072,8.0,49.825695,24.038866,338.0,NaN,4.788,3.5,237.8,21 / 26,319536,2020-03-14 13:33:27:340
-7.61835,4.247314,0.627281,8.0,49.825695,24.038866,338.0,NaN,4.788,3.5,237.8,21 / 26,320036,2020-03-14 13:33:27:840
5.827487,-10.649409,-10.457873,8.0,49.825695,24.038866,338.0,NaN,4.788,3.5,237.8,19 / 26,320536,2020-03-14 13:33:28:340
1.106121,19.589357,4.563349,8.0,49.825695,24.038866,338.0,NaN,4.788,3.5,237.8,19 / 26,321036,2020-03-14 13:33:28:840
5.497087,12.86644,22.567745,8.0,49.825695,24.038866,338.0,NaN,4.788,3.5,237.8,22 / 26,321536,2020-03-14 13:33:29:340
12.459426,10.606314,2.466028,8.0,49.825695,24.038866,338.0,NaN,4.788,3.5,237.8,22 / 26,322036,2020-03-14 13:33:29:840
17.209522,11.247959,4.194642,8.0,49.825695,24.038866,338.0,NaN,4.788,3.5,237.8,21 / 26,322536,2020-03-14 13:33:30:340
-4.304775,8.590396,-1.211466,8.0,49.825695,24.038866,338.0,NaN,4.788,3.5,237.8,21 / 26,323036,2020-03-14 13:33:30:840
5.837064,-17.707516,-10.884041,8.0,49.825695,24.038866,338.0,NaN,4.788,3.5,237.8,21 / 26,323536,2020-03-14 13:33:31:340
5.070919,14.978126,-4.525041,8.0,49.825695,24.038866,338.0,NaN,4.788,3.5,237.8,21 / 26,324037,2020-03-14 13:33:31:841
22.017078,36.956898,7.52737,8.0,49.825695,24.038866,338.0,NaN,4.788,3.5,237.8,21 / 26,324537,2020-03-14 13:33:32:341
3.907337,0.924162,-2.389413,8.0,49.825695,24.038866,338.0,NaN,4.788,3.5,237.8,21 / 26,325036,2020-03-14 13:33:32:840
-2.082955,6.670246,2.341529,8.0,49.825695,24.038866,338.0,NaN,4.788,3.5,237.8,20 / 25,325536,2020-03-14 13:33:33:340
16.64449,27.839775,14.628572,8.0,49.825695,24.038866,338.0,NaN,4.788,3.5,237.8,20 / 25,326036,2020-03-14 13:33:33:840
6.272809,0.952892,-1.972822,8.0,49.825695,24.038866,338.0,NaN,4.788,3.5,237.8,19 / 26,326536,2020-03-14 13:33:34:340
-2.94008,5.358224,3.327941,8.0,49.825695,24.038866,338.0,NaN,4.788,3.5,237.8,19 / 26,327036,2020-03-14 13:33:34:840
1.637634,-4.922478,-0.445322,8.0,49.825695,24.038866,338.0,NaN,4.788,3.5,237.8,20 / 26,327536,2020-03-14 13:33:35:340
11.137826,8.791509,0.895431,8.0,49.825695,24.038866,338.0,NaN,4.788,3.5,237.8,20 / 26,328037,2020-03-14 13:33:35:841
-2.901772,-13.977349,-3.845088,8.0,49.825695,24.038866,338.0,NaN,4.788,3.5,237.8,21 / 25,328536,2020-03-14 13:33:36:340
-9.988609,9.193734,0.162806,8.0,49.825695,24.038866,338.0,NaN,4.788,3.5,237.8,21 / 25,329036,2020-03-14 13:33:36:840
27.825413,39.188293,-0.344765,8.0,49.825695,24.038866,338.0,NaN,4.788,3.5,237.8,21 / 26,329537,2020-03-14 13:33:37:341
-2.327164,-10.941502,-7.086837,8.0,49.825695,24.038866,338.0,NaN,4.788,3.5,237.8,21 / 26,330036,2020-03-14 13:33:37:840
-0.857124,11.999739,14.326903,8.0,49.82541,24.037117,329.0,NaN,10.224,3.5,251.8,20 / 25,330537,2020-03-14 13:33:38:341
-6.775591,3.371036,4.041412,8.0,49.82541,24.037117,329.0,NaN,10.224,3.5,251.8,20 / 25,331036,2020-03-14 13:33:38:840
2.82037,-2.063802,-3.323152,8.0,49.82541,24.037117,329.0,NaN,10.224,3.5,251.8,20 / 25,331536,2020-03-14 13:33:39:340
27.667395,29.27151,5.018247,8.0,49.82541,24.037117,329.0,NaN,10.224,3.5,251.8,20 / 25,332036,2020-03-14 13:33:39:840
-1.905785,7.666234,-2.240973,8.0,49.82541,24.037117,329.0,NaN,10.224,3.5,251.8,21 / 25,332536,2020-03-14 13:33:40:340
1.412579,-19.771318,-7.149086,8.0,49.82541,24.037117,329.0,NaN,10.224,3.5,251.8,21 / 25,333036,2020-03-14 13:33:40:840
20.245367,35.060688,8.604761,8.0,49.82541,24.037117,329.0,NaN,10.224,3.5,251.8,19 / 24,333536,2020-03-14 13:33:41:340
4.472369,20.317196,-1.656788,8.0,49.82541,24.037117,329.0,NaN,10.224,3.5,251.8,19 / 24,334036,2020-03-14 13:33:41:840
4.611233,-18.26776,-1.005565,8.0,49.82541,24.037117,329.0,NaN,10.224,3.5,251.8,19 / 24,334536,2020-03-14 13:33:42:340
0.612916,6.708554,-0.426168,8.0,49.82541,24.037117,329.0,NaN,10.224,3.5,251.8,19 / 24,335036,2020-03-14 13:33:42:840
33.221943,38.383842,3.203442,8.0,49.82541,24.037117,329.0,NaN,10.224,3.5,251.8,20 / 25,335536,2020-03-14 13:33:43:340
7.345411,-17.319654,-4.979939,8.0,49.82541,24.037117,329.0,NaN,10.224,3.5,251.8,20 / 25,336036,2020-03-14 13:33:43:840
17.362753,32.431858,14.240712,8.0,49.82541,24.037117,329.0,NaN,10.224,3.5,251.8,20 / 25,336536,2020-03-14 13:33:44:340
3.5099,16.79772,-4.874594,8.0,49.82541,24.037117,329.0,NaN,10.224,3.5,251.8,20 / 25,337036,2020-03-14 13:33:44:840
3.371036,-17.530344,3.514688,8.0,49.82541,24.037117,329.0,NaN,10.224,3.5,251.8,20 / 24,337536,2020-03-14 13:33:45:340
7.474698,13.934254,1.814805,8.0,49.82541,24.037117,329.0,NaN,10.224,3.5,251.8,20 / 24,338036,2020-03-14 13:33:45:840
39.188293,39.188293,4.448427,8.0,49.82541,24.037117,329.0,NaN,10.224,3.5,251.8,20 / 24,338536,2020-03-14 13:33:46:340
1.177947,3.931279,-5.72693,8.0,49.82541,24.037117,329.0,NaN,10.224,3.5,251.8,20 / 24,339036,2020-03-14 13:33:46:840
-5.142745,6.186618,-0.603339,8.0,49.82541,24.037117,329.0,NaN,10.224,3.5,251.8,21 / 24,339536,2020-03-14 13:33:47:340
2.432509,-14.494497,-3.624821,8.0,49.82541,24.037117,329.0,NaN,10.224,3.5,251.8,21 / 24,340036,2020-03-14 13:33:47:840
11.84651,27.734432,9.121908,8.0,49.82541,24.037117,329.0,NaN,10.224,3.5,251.8,20 / 25,340536,2020-03-14 13:33:48:340
2.418144,20.082563,-4.515464,8.0,49.82541,24.037117,329.0,NaN,10.224,3.5,251.8,20 / 25,341036,2020-03-14 13:33:48:840
19.64203,-4.989516,1.604115,8.0,49.82541,24.037117,329.0,NaN,10.224,3.5,251.8,22 / 26,341536,2020-03-14 13:33:49:340
19.16319,29.38643,15.710752,8.0,49.82541,24.037117,329.0,NaN,10.224,3.5,251.8,22 / 26,342036,2020-03-14 13:33:49:840
-1.781286,13.148955,-6.272808,8.0,49.82541,24.037117,329.0,NaN,10.224,3.5,251.8,23 / 26,342536,2020-03-14 13:33:50:340
4.893749,-11.559206,-1.714248,8.0,49.82541,24.037117,329.0,NaN,10.224,3.5,251.8,23 / 26,343036,2020-03-14 13:33:50:840
-2.75812,5.463568,4.309563,8.0,49.82541,24.037117,329.0,NaN,10.224,3.5,251.8,23 / 26,343536,2020-03-14 13:33:51:340
16.381128,17.017986,1.249773,8.0,49.82541,24.037117,329.0,NaN,10.224,3.5,251.8,23 / 26,344036,2020-03-14 13:33:51:840
8.537724,11.032481,0.59855,8.0,49.82541,24.037117,329.0,NaN,10.224,3.5,251.8,22 / 26,344536,2020-03-14 13:33:52:340
-5.544971,3.591303,1.043872,8.0,49.82541,24.037117,329.0,NaN,10.224,3.5,251.8,22 / 26,345036,2020-03-14 13:33:52:840
7.000646,23.913286,2.8491,8.0,49.82541,24.037117,329.0,NaN,10.224,3.5,251.8,23 / 27,345536,2020-03-14 13:33:53:340
5.0374,-12.445061,-3.265691,8.0,49.82541,24.037117,329.0,NaN,10.224,3.5,251.8,23 / 27,346036,2020-03-14 13:33:53:840
-3.960009,7.196971,0.162806,8.0,49.82541,24.037117,329.0,NaN,10.224,3.5,251.8,23 / 27,346536,2020-03-14 13:33:54:340
30.205248,32.350452,7.551312,8.0,49.82541,24.037117,329.0,NaN,10.224,3.5,251.8,23 / 27,347036,2020-03-14 13:33:54:840
8.90643,4.223372,0.277727,8.0,49.82541,24.037117,329.0,NaN,10.224,3.5,251.8,23 / 27,347537,2020-03-14 13:33:55:341
-8.465898,8.580819,3.931279,8.0,49.82541,24.037117,329.0,NaN,10.224,3.5,251.8,23 / 27,348036,2020-03-14 13:33:55:840
11.621455,-14.78659,1.120486,8.0,49.82541,24.037117,329.0,NaN,10.224,3.5,251.8,23 / 27,348536,2020-03-14 13:33:56:340
2.801216,-11.008539,-2.705448,8.0,49.82541,24.037117,329.0,NaN,10.224,3.5,251.8,23 / 27,349037,2020-03-14 13:33:56:841
-2.676717,6.991069,6.133945,8.0,49.82541,24.037117,329.0,NaN,10.224,3.5,251.8,21 / 26,349536,2020-03-14 13:33:57:340
30.301016,28.457481,6.852206,8.0,49.82541,24.037117,329.0,NaN,10.224,3.5,251.8,21 / 26,350036,2020-03-14 13:33:57:840
9.562442,11.793838,2.863465,8.0,49.82541,24.037117,329.0,NaN,10.224,3.5,251.8,21 / 27,350536,2020-03-14 13:33:58:340
-3.739743,7.125145,0.335188,8.0,49.82541,24.037117,329.0,NaN,10.224,3.5,251.8,21 / 27,351036,2020-03-14 13:33:58:840
4.515465,-20.968418,-2.30801,8.0,49.82541,24.037117,329.0,NaN,10.224,3.5,251.8,20 / 27,351536,2020-03-14 13:33:59:340
4.764462,25.24925,15.658079,8.0,49.82541,24.037117,329.0,NaN,10.224,3.5,251.8,20 / 27,352036,2020-03-14 13:33:59:840
0.043096,14.872781,-5.291186,8.0,49.82541,24.037117,329.0,NaN,10.224,3.5,251.8,22 / 26,352536,2020-03-14 13:34:00:340
1.278504,-12.938266,-1.216254,8.0,49.82541,24.037117,329.0,NaN,10.224,3.5,251.8,22 / 26,353036,2020-03-14 13:34:00:840
25.780764,20.15439,1.455675,8.0,49.82541,24.037117,329.0,NaN,10.224,3.5,251.8,20 / 26,353536,2020-03-14 13:34:01:340
-3.581726,5.770026,1.651999,8.0,49.82541,24.037117,329.0,NaN,10.224,3.5,251.8,20 / 26,354036,2020-03-14 13:34:01:840
5.659893,-14.824897,-5.214571,8.0,49.82541,24.037117,329.0,NaN,10.224,3.5,251.8,18 / 26,354536,2020-03-14 13:34:02:340
-3.107674,4.630386,3.811569,8.0,49.82541,24.037117,329.0,NaN,10.224,3.5,251.8,18 / 26,355036,2020-03-14 13:34:02:840
12.430696,17.84159,3.462016,8.0,49.82541,24.037117,329.0,NaN,10.224,3.5,251.8,19 / 26,355536,2020-03-14 13:34:03:340
11.712435,16.49126,3.849877,8.0,49.82541,24.037117,329.0,NaN,10.224,3.5,251.8,19 / 26,356037,2020-03-14 13:34:03:841
-5.803545,6.076484,0.335188,8.0,49.82541,24.037117,329.0,NaN,10.224,3.5,251.8,18 / 26,356536,2020-03-14 13:34:04:340
5.415684,-11.453861,-1.321599,8.0,49.82541,24.037117,329.0,NaN,10.224,3.5,251.8,18 / 26,357036,2020-03-14 13:34:04:840
8.963891,9.907207,0.306458,8.0,49.82541,24.037117,329.0,NaN,10.224,3.5,251.8,18 / 27,357536,2020-03-14 13:34:05:340
-3.351882,4.357447,-6.545747,8.0,49.82541,24.037117,329.0,NaN,10.224,3.5,251.8,18 / 27,358037,2020-03-14 13:34:05:841
7.991845,-3.730166,-2.360683,8.0,49.82541,24.037117,329.0,NaN,10.224,3.5,251.8,19 / 25,358536,2020-03-14 13:34:06:340
-0.09098,7.982269,7.85777,8.0,49.82541,24.037117,329.0,NaN,10.224,3.5,251.8,19 / 25,359037,2020-03-14 13:34:06:841
24.286781,29.75035,-8.03494,8.0,49.82541,24.037117,329.0,NaN,10.224,3.5,251.8,19 / 27,359536,2020-03-14 13:34:07:340
14.403518,5.664682,7.086837,8.0,49.82541,24.037117,329.0,NaN,10.224,3.5,251.8,19 / 27,360037,2020-03-14 13:34:07:841
-4.759673,3.830723,-1.40779,8.0,49.82541,24.037117,329.0,NaN,10.224,3.5,251.8,17 / 27,360536,2020-03-14 13:34:08:340
-2.250549,-16.79293,-4.759673,8.0,49.82541,24.037117,329.0,NaN,10.224,3.5,251.8,17 / 27,361036,2020-03-14 13:34:08:840
3.433285,13.670892,5.018247,8.0,49.82541,24.037117,329.0,NaN,10.224,3.5,251.8,20 / 26,361536,2020-03-14 13:34:09:340
23.501484,27.86372,5.013459,8.0,49.82541,24.037117,329.0,NaN,10.224,3.5,251.8,20 / 26,362036,2020-03-14 13:34:09:840
5.88016,-16.82166,-11.84651,8.0,49.82541,24.037117,329.0,NaN,10.224,3.5,251.8,22 / 27,362536,2020-03-14 13:34:10:340
29.850906,39.188293,3.964798,8.0,49.82541,24.037117,329.0,NaN,10.224,3.5,251.8,22 / 27,363036,2020-03-14 13:34:10:840
-4.175488,7.905654,1.063026,8.0,49.82541,24.037117,329.0,NaN,10.224,3.5,251.8,23 / 26,363537,2020-03-14 13:34:11:341
11.219229,-8.087613,-15.380352,8.0,49.82541,24.037117,329.0,NaN,10.224,3.5,251.8,23 / 26,364036,2020-03-14 13:34:11:840
-1.403002,10.093954,9.074024,8.0,49.82541,24.037117,329.0,NaN,10.224,3.5,251.8,21 / 27,364536,2020-03-14 13:34:12:340
14.221559,23.649925,12.962208,8.0,49.82541,24.037117,329.0,NaN,10.224,3.5,251.8,21 / 27,365036,2020-03-14 13:34:12:840
3.414132,-3.533841,-2.111686,8.0,49.82541,24.037117,329.0,NaN,10.224,3.5,251.8,23 / 27,365536,2020-03-14 13:34:13:340
0.09098,10.984597,2.403779,8.0,49.82541,24.037117,329.0,NaN,10.224,3.5,251.8,23 / 27,366036,2020-03-14 13:34:13:840
-0.258574,10.156203,2.006341,8.0,49.82541,24.037117,329.0,NaN,10.224,3.5,251.8,22 / 28,366536,2020-03-14 13:34:14:340
1.604115,-15.078682,-1.288081,8.0,49.82541,24.037117,329.0,NaN,10.224,3.5,251.8,22 / 28,367036,2020-03-14 13:34:14:840
-1.47004,7.235278,10.936713,8.0,49.82541,24.037117,329.0,NaN,10.224,3.5,251.8,22 / 27,367536,2020-03-14 13:34:15:340
38.98239,31.2156,10.481815,8.0,49.82541,24.037117,329.0,NaN,10.224,3.5,251.8,22 / 27,368036,2020-03-14 13:34:15:840
3.572149,-4.783615,-0.09098,8.0,49.82541,24.037117,329.0,NaN,10.224,3.5,251.8,21 / 28,368536,2020-03-14 13:34:16:340
-0.59855,6.234502,1.671153,8.0,49.82541,24.037117,329.0,NaN,10.224,3.5,251.8,21 / 28,369036,2020-03-14 13:34:16:840
19.148825,6.933608,-0.59855,8.0,49.82541,24.037117,329.0,NaN,10.224,3.5,251.8,21 / 28,369537,2020-03-14 13:34:17:341
27.370514,24.516624,3.294422,8.0,49.82541,24.037117,329.0,NaN,10.224,3.5,251.8,21 / 28,370036,2020-03-14 13:34:17:840
-5.21936,10.19451,6.995857,8.0,49.82541,24.037117,329.0,NaN,10.224,3.5,251.8,20 / 28,370536,2020-03-14 13:34:18:340
22.49113,37.612907,-4.477157,8.0,49.82541,24.037117,329.0,NaN,10.224,3.5,251.8,20 / 28,371036,2020-03-14 13:34:18:840
5.238514,-5.300762,-13.340492,8.0,49.82541,24.037117,329.0,NaN,10.224,3.5,251.8,23 / 29,371536,2020-03-14 13:34:19:340
-6.761225,5.813122,-0.02873,0.0,49.82541,24.037117,329.0,NaN,10.224,3.5,251.8,23 / 29,372036,2020-03-14 13:34:19:840
20.140024,-5.530606,7.97748,8.0,49.82541,24.037117,329.0,NaN,10.224,3.5,251.8,23 / 29,372536,2020-03-14 13:34:20:340
36.430172,29.242779,11.683704,8.0,49.82541,24.037117,329.0,NaN,10.224,3.5,251.8,23 / 29,373036,2020-03-14 13:34:20:840
-1.493982,12.65575,0.56982,8.0,49.82541,24.037117,329.0,NaN,10.224,3.5,251.8,22 / 29,373536,2020-03-14 13:34:21:340
1.192313,-14.087482,-4.596867,8.0,49.82541,24.037117,329.0,NaN,10.224,3.5,251.8,22 / 29,374036,2020-03-14 13:34:21:840
15.873557,14.42746,0.770933,8.0,49.82541,24.037117,329.0,NaN,10.224,3.5,251.8,23 / 29,374536,2020-03-14 13:34:22:340
-3.643975,9.749189,0.80924,8.0,49.82541,24.037117,329.0,NaN,10.224,3.5,251.8,23 / 29,375036,2020-03-14 13:34:22:840
3.605668,-17.683575,-3.112462,8.0,49.82541,24.037117,329.0,NaN,10.224,3.5,251.8,22 / 30,375536,2020-03-14 13:34:23:340
5.942409,22.457611,1.877054,8.0,49.82541,24.037117,329.0,NaN,10.224,3.5,251.8,22 / 30,376036,2020-03-14 13:34:23:840
11.362882,26.585217,3.639187,8.0,49.82541,24.037117,329.0,NaN,10.224,3.5,251.8,23 / 29,376536,2020-03-14 13:34:24:340
-0.579397,-4.34787,-3.859453,8.0,49.82541,24.037117,329.0,NaN,10.224,3.5,251.8,23 / 29,377036,2020-03-14 13:34:24:840
-2.700659,5.865794,3.366248,8.0,49.82541,24.037117,329.0,NaN,10.224,3.5,251.8,22 / 29,377537,2020-03-14 13:34:25:341
9.758766,4.065354,-2.925714,8.0,49.82541,24.037117,329.0,NaN,10.224,3.5,251.8,22 / 29,378036,2020-03-14 13:34:25:840
17.865534,22.060175,15.610195,8.0,49.82564,24.035381,327.0,NaN,8.28,3.0,310.3,22 / 29,378536,2020-03-14 13:34:26:340
0.081403,6.038177,7.991845,8.0,49.82564,24.035381,327.0,NaN,8.28,3.0,310.3,22 / 29,379036,2020-03-14 13:34:26:840
8.437167,0.21069,1.508347,8.0,49.82564,24.035381,327.0,NaN,8.28,3.0,310.3,22 / 30,379539,2020-03-14 13:34:27:343
2.719813,1.671153,16.132132,8.0,49.82564,24.035381,327.0,NaN,8.28,3.0,310.3,22 / 30,380036,2020-03-14 13:34:27:840
-2.647987,3.303998,2.743755,8.0,49.82564,24.035381,327.0,NaN,8.28,3.0,310.3,22 / 30,380536,2020-03-14 13:34:28:340
8.202535,0.976834,6.560113,8.0,49.82564,24.035381,327.0,NaN,8.28,3.0,310.3,22 / 30,381037,2020-03-14 13:34:28:841
-2.135628,7.149087,7.340623,8.0,49.82564,24.035381,327.0,NaN,8.28,3.0,310.3,20 / 29,381536,2020-03-14 13:34:29:340
2.949657,8.542512,9.662998,8.0,49.82564,24.035381,327.0,NaN,8.28,3.0,310.3,20 / 29,382036,2020-03-14 13:34:29:840
4.280833,2.226608,3.916914,8.0,49.82564,24.035381,327.0,NaN,8.28,3.0,310.3,20 / 29,382536,2020-03-14 13:34:30:340
-1.043872,9.275137,8.595184,8.0,49.82564,24.035381,327.0,NaN,8.28,3.0,310.3,20 / 29,383036,2020-03-14 13:34:30:840
-5.822698,3.581726,6.071696,8.0,49.82564,24.035381,327.0,NaN,8.28,3.0,310.3,22 / 29,383536,2020-03-14 13:34:31:340
3.318364,0.454898,5.386954,8.0,49.82564,24.035381,327.0,NaN,8.28,3.0,310.3,22 / 29,384036,2020-03-14 13:34:31:840
-2.42772,6.009446,5.439626,8.0,49.82564,24.035381,327.0,NaN,8.28,3.0,310.3,19 / 28,384536,2020-03-14 13:34:32:340
5.238514,3.998317,18.272547,8.0,49.82564,24.035381,327.0,NaN,8.28,3.0,310.3,19 / 28,385036,2020-03-14 13:34:32:840
3.394978,1.197101,0.23942,8.0,49.82564,24.035381,327.0,NaN,8.28,3.0,310.3,21 / 28,385536,2020-03-14 13:34:33:340
-5.118803,5.501876,7.623139,8.0,49.82564,24.035381,327.0,NaN,8.28,3.0,310.3,21 / 28,386037,2020-03-14 13:34:33:841
11.310209,10.041282,5.6982,8.0,49.82564,24.035381,327.0,NaN,8.28,3.0,310.3,21 / 28,386536,2020-03-14 13:34:34:340
11.750742,10.381259,0.033519,8.0,49.82564,24.035381,327.0,NaN,8.28,3.0,310.3,23 / 29,387036,2020-03-14 13:34:34:840
4.127604,16.534357,6.579266,8.0,49.82564,24.035381,327.0,NaN,8.28,3.0,310.3,21 / 28,387536,2020-03-14 13:34:35:340
6.679823,17.84638,2.035071,8.0,49.82564,24.035381,327.0,NaN,8.28,3.0,310.3,21 / 28,388036,2020-03-14 13:34:35:840
3.002329,-9.342175,-4.955997,8.0,49.82564,24.035381,327.0,NaN,8.28,3.0,310.3,22 / 29,388537,2020-03-14 13:34:36:341
-3.08852,6.464345,4.754885,8.0,49.82564,24.035381,327.0,NaN,8.28,3.0,310.3,22 / 29,389036,2020-03-14 13:34:36:840
11.257536,15.433024,15.08347,8.0,49.82564,24.035381,327.0,NaN,8.28,3.0,310.3,21 / 28,389536,2020-03-14 13:34:37:340
12.138602,7.757214,0.90022,8.0,49.82564,24.035381,327.0,NaN,8.28,3.0,310.3,21 / 28,390036,2020-03-14 13:34:37:840
-4.644751,5.93762,-6.330269,8.0,49.82564,24.035381,327.0,NaN,8.28,3.0,310.3,22 / 28,390536,2020-03-14 13:34:38:340
1.513135,-13.426683,-1.106121,8.0,49.82564,24.035381,327.0,NaN,8.28,3.0,310.3,22 / 28,391036,2020-03-14 13:34:38:840
18.789696,26.522966,19.541473,8.0,49.82564,24.035381,327.0,NaN,8.28,3.0,310.3,19 / 27,391536,2020-03-14 13:34:39:340
-6.042965,3.96001,2.911349,8.0,49.82564,24.035381,327.0,NaN,8.28,3.0,310.3,19 / 27,392036,2020-03-14 13:34:39:840
18.171991,6.756438,31.16293,8.0,49.82564,24.035381,327.0,NaN,8.28,3.0,310.3,20 / 28,392536,2020-03-14 13:34:40:340
13.881581,9.313444,6.655881,8.0,49.82564,24.035381,327.0,NaN,8.28,3.0,310.3,20 / 28,393036,2020-03-14 13:34:40:840
-5.765238,5.726931,-1.292869,8.0,49.82564,24.035381,327.0,NaN,8.28,3.0,310.3,19 / 28,393536,2020-03-14 13:34:41:340
1.134852,-15.749059,-2.887407,8.0,49.82564,24.035381,327.0,NaN,8.28,3.0,310.3,19 / 28,394036,2020-03-14 13:34:41:840
8.51857,24.961946,7.915231,8.0,49.82564,24.035381,327.0,NaN,8.28,3.0,310.3,20 / 28,394536,2020-03-14 13:34:42:340
2.719813,17.970879,5.0374,8.0,49.82564,24.035381,327.0,NaN,8.28,3.0,310.3,20 / 28,395036,2020-03-14 13:34:42:840
3.715801,-8.331821,-8.255207,8.0,49.82564,24.035381,327.0,NaN,8.28,3.0,310.3,22 / 28,395536,2020-03-14 13:34:43:340
0.292093,6.761226,4.505888,8.0,49.82564,24.035381,327.0,NaN,8.28,3.0,310.3,22 / 28,396036,2020-03-14 13:34:43:840
31.182083,25.948359,6.445191,8.0,49.82564,24.035381,327.0,NaN,8.28,3.0,310.3,23 / 27,396536,2020-03-14 13:34:44:340
6.665458,9.514558,-3.126827,8.0,49.82564,24.035381,327.0,NaN,8.28,3.0,310.3,23 / 27,397036,2020-03-14 13:34:44:840
7.781156,19.421764,11.530476,8.0,49.82564,24.035381,327.0,NaN,8.28,3.0,310.3,23 / 27,397537,2020-03-14 13:34:45:341
7.805098,20.733788,21.284452,8.0,49.82564,24.035381,327.0,NaN,8.28,3.0,310.3,23 / 27,398036,2020-03-14 13:34:45:840
5.525818,-2.901772,-2.604891,8.0,49.82564,24.035381,327.0,NaN,8.28,3.0,310.3,21 / 28,398536,2020-03-14 13:34:46:340
-8.197746,13.441049,9.68694,8.0,49.82564,24.035381,327.0,NaN,8.28,3.0,310.3,21 / 28,399037,2020-03-14 13:34:46:841
7.943961,-4.941632,-2.99754,8.0,49.82564,24.035381,327.0,NaN,8.28,3.0,310.3,23 / 28,399536,2020-03-14 13:34:47:340
21.246145,12.799402,-3.44765,8.0,49.82564,24.035381,327.0,NaN,8.28,3.0,310.3,23 / 28,400036,2020-03-14 13:34:47:840
-2.480393,10.702082,2.892196,8.0,49.82564,24.035381,327.0,NaN,8.28,3.0,310.3,19 / 26,400536,2020-03-14 13:34:48:340
6.157887,-15.485697,-0.914585,8.0,49.82564,24.035381,327.0,NaN,8.28,3.0,310.3,19 / 26,401036,2020-03-14 13:34:48:840
5.391742,0.871489,-0.790087,8.0,49.82564,24.035381,327.0,NaN,8.28,3.0,310.3,23 / 27,401536,2020-03-14 13:34:49:340
-0.627281,10.012551,2.389413,8.0,49.82564,24.035381,327.0,NaN,8.28,3.0,310.3,23 / 27,402036,2020-03-14 13:34:49:840
14.140155,2.212242,-1.982399,8.0,49.82564,24.035381,327.0,NaN,8.28,3.0,310.3,22 / 27,402536,2020-03-14 13:34:50:340
23.90371,19.383457,5.31034,8.0,49.82564,24.035381,327.0,NaN,8.28,3.0,310.3,22 / 27,403036,2020-03-14 13:34:50:840
-3.251326,8.111555,-2.868254,8.0,49.82564,24.035381,327.0,NaN,8.28,3.0,310.3,21 / 28,403536,2020-03-14 13:34:51:340
4.046201,-13.522451,-3.361459,8.0,49.82564,24.035381,327.0,NaN,8.28,3.0,310.3,21 / 28,404036,2020-03-14 13:34:51:840
2.987964,12.53604,5.276821,8.0,49.82564,24.035381,327.0,NaN,8.28,3.0,310.3,21 / 28,404536,2020-03-14 13:34:52:340
14.240712,25.775976,9.136273,8.0,49.82564,24.035381,327.0,NaN,8.28,3.0,310.3,21 / 28,405036,2020-03-14 13:34:52:840
10.788273,-4.726154,-3.423708,8.0,49.82564,24.035381,327.0,NaN,8.28,3.0,310.3,20 / 29,405536,2020-03-14 13:34:53:340
16.294937,12.20564,-3.193865,8.0,49.82564,24.035381,327.0,NaN,8.28,3.0,310.3,20 / 29,406036,2020-03-14 13:34:53:840
-5.784391,5.363012,-3.337517,8.0,49.82564,24.035381,327.0,NaN,8.28,3.0,310.3,22 / 29,406536,2020-03-14 13:34:54:340
3.715801,-13.977349,-0.991199,8.0,49.82564,24.035381,327.0,NaN,8.28,3.0,310.3,22 / 29,407036,2020-03-14 13:34:54:840
5.200207,29.463049,2.274492,8.0,49.82564,24.035381,327.0,NaN,8.28,3.0,310.3,22 / 29,407537,2020-03-14 13:34:55:341
3.77805,20.312407,12.454638,8.0,49.82564,24.035381,327.0,NaN,8.28,3.0,310.3,22 / 29,408036,2020-03-14 13:34:55:840
5.54976,-9.495404,-6.679823,8.0,49.82564,24.035381,327.0,NaN,8.28,3.0,310.3,22 / 28,408536,2020-03-14 13:34:56:340
-3.557784,5.674258,2.15957,8.0,49.82564,24.035381,327.0,NaN,8.28,3.0,310.3,22 / 28,409036,2020-03-14 13:34:56:840
17.597382,24.74168,11.496957,8.0,49.82564,24.035381,327.0,NaN,8.28,3.0,310.3,21 / 29,409536,2020-03-14 13:34:57:340
3.126828,-18.411411,-2.901772,8.0,49.82564,24.035381,327.0,NaN,8.28,3.0,310.3,21 / 29,410037,2020-03-14 13:34:57:841
8.537724,20.896593,12.966996,8.0,49.82564,24.035381,327.0,NaN,8.28,3.0,310.3,22 / 29,410536,2020-03-14 13:34:58:340
4.434062,23.21418,-8.8777,8.0,49.82564,24.035381,327.0,NaN,8.28,3.0,310.3,22 / 29,411037,2020-03-14 13:34:58:841
0.464475,-11.401189,-3.586514,8.0,49.82564,24.035381,327.0,NaN,8.28,3.0,310.3,23 / 29,411536,2020-03-14 13:34:59:340
3.567361,9.303867,5.444415,8.0,49.82564,24.035381,327.0,NaN,8.28,3.0,310.3,23 / 29,412036,2020-03-14 13:34:59:840
18.53591,20.221428,4.759673,8.0,49.82564,24.035381,327.0,NaN,8.28,3.0,310.3,23 / 29,412536,2020-03-14 13:35:00:340
8.681376,8.264784,2.15957,8.0,49.82564,24.035381,327.0,NaN,8.28,3.0,310.3,23 / 29,413036,2020-03-14 13:35:00:840
-5.717354,4.826711,-1.570596,8.0,49.82564,24.035381,327.0,NaN,8.28,3.0,310.3,21 / 29,413536,2020-03-14 13:35:01:340
3.29921,-12.713211,-10.481815,8.0,49.82564,24.035381,327.0,NaN,8.28,3.0,310.3,21 / 29,414036,2020-03-14 13:35:01:840
6.181829,24.526203,6.612785,8.0,49.82564,24.035381,327.0,NaN,8.28,3.0,310.3,22 / 29,414536,2020-03-14 13:35:02:340
-8.384495,5.650316,0.45011,8.0,49.82564,24.035381,327.0,NaN,8.28,3.0,310.3,22 / 29,415036,2020-03-14 13:35:02:840
10.591949,4.855441,0.981623,8.0,49.82564,24.035381,327.0,NaN,8.28,3.0,310.3,23 / 29,415536,2020-03-14 13:35:03:340
14.235924,15.44739,-1.656788,8.0,49.82564,24.035381,327.0,NaN,8.28,3.0,310.3,23 / 29,416037,2020-03-14 13:35:03:841
-4.625597,6.540959,-2.537854,8.0,49.82564,24.035381,327.0,NaN,8.28,3.0,310.3,22 / 28,416536,2020-03-14 13:35:04:340
-3.260903,-18.171991,-1.201889,8.0,49.82564,24.035381,327.0,NaN,8.28,3.0,310.3,22 / 28,417036,2020-03-14 13:35:04:840
14.317327,36.932957,17.688362,8.0,49.82564,24.035381,327.0,NaN,8.28,3.0,310.3,23 / 29,417536,2020-03-14 13:35:05:340
0.976834,17.314869,-1.699883,8.0,49.82564,24.035381,327.0,NaN,8.28,3.0,310.3,23 / 29,418036,2020-03-14 13:35:05:840
4.520253,4.084508,-0.454898,8.0,49.82564,24.035381,327.0,NaN,8.28,3.0,310.3,24 / 28,418536,2020-03-14 13:35:06:340
13.752295,14.518439,7.015011,8.0,49.82564,24.035381,327.0,NaN,8.28,3.0,310.3,24 / 28,419036,2020-03-14 13:35:06:840
-5.980716,5.530606,-3.117251,8.0,49.82564,24.035381,327.0,NaN,8.28,3.0,310.3,21 / 29,419536,2020-03-14 13:35:07:340
1.776498,-15.318103,-1.072602,8.0,49.82564,24.035381,327.0,NaN,8.28,3.0,310.3,21 / 29,420036,2020-03-14 13:35:07:840
28.318617,34.476505,10.759542,8.0,49.82564,24.035381,327.0,NaN,8.28,3.0,310.3,22 / 29,420536,2020-03-14 13:35:08:340
0.35913,12.512098,-0.526724,8.0,49.82564,24.035381,327.0,NaN,8.28,3.0,310.3,22 / 29,421036,2020-03-14 13:35:08:840
6.100426,-10.668563,-0.296881,8.0,49.82564,24.035381,327.0,NaN,8.28,3.0,310.3,22 / 29,421536,2020-03-14 13:35:09:340
-1.254562,7.627927,7.105991,8.0,49.82564,24.035381,327.0,NaN,8.28,3.0,310.3,22 / 29,422036,2020-03-14 13:35:09:840
23.343466,31.948227,6.785168,8.0,49.82564,24.035381,327.0,NaN,8.28,3.0,310.3,21 / 29,422536,2020-03-14 13:35:10:340
2.810793,-16.175226,-0.21069,8.0,49.82564,24.035381,327.0,NaN,8.28,3.0,310.3,21 / 29,423036,2020-03-14 13:35:10:840
3.567361,15.959748,8.010999,8.0,49.82564,24.035381,327.0,NaN,8.28,3.0,310.3,23 / 28,423537,2020-03-14 13:35:11:341
8.772355,25.273193,9.77792,8.0,49.82564,24.035381,327.0,NaN,8.28,3.0,310.3,23 / 28,424036,2020-03-14 13:35:11:840
-0.296881,-9.284714,-3.031059,8.0,49.82564,24.035381,327.0,NaN,8.28,3.0,310.3,24 / 28,424536,2020-03-14 13:35:12:340
-10.357317,1.426944,15.241488,8.0,49.82564,24.035381,327.0,NaN,8.28,3.0,310.3,24 / 28,425036,2020-03-14 13:35:12:840
18.488026,7.283162,8.30788,8.0,49.82564,24.035381,327.0,NaN,8.28,3.0,310.3,23 / 28,425536,2020-03-14 13:35:13:340
15.188815,14.398729,5.702989,8.0,49.82564,24.035381,327.0,NaN,8.28,3.0,310.3,23 / 28,426036,2020-03-14 13:35:13:840
-3.021482,7.216124,-1.819593,8.0,49.826416,24.034079,332.0,NaN,5.544,3.5,235.2,24 / 28,426536,2020-03-14 13:35:14:340
25.474306,34.821266,6.402096,8.0,49.826416,24.034079,332.0,NaN,5.544,3.5,235.2,24 / 28,427036,2020-03-14 13:35:14:840
8.825027,3.102886,-6.98628,8.0,49.826416,24.034079,332.0,NaN,5.544,3.5,235.2,24 / 28,427536,2020-03-14 13:35:15:340
-3.892972,4.41012,3.979163,8.0,49.826416,24.034079,332.0,NaN,5.544,3.5,235.2,24 / 28,428036,2020-03-14 13:35:15:840
6.579266,-9.667787,1.211466,8.0,49.826416,24.034079,332.0,NaN,5.544,3.5,235.2,23 / 28,428540,2020-03-14 13:35:16:344
6.421249,27.59557,8.418014,8.0,49.826416,24.034079,332.0,NaN,5.544,3.5,235.2,23 / 28,429036,2020-03-14 13:35:16:840
2.06859,20.69069,3.696648,8.0,49.826416,24.034079,332.0,NaN,5.544,3.5,235.2,23 / 28,429536,2020-03-14 13:35:17:340
5.6982,-3.08852,-3.102885,8.0,49.826416,24.034079,332.0,NaN,5.544,3.5,235.2,22 / 28,430036,2020-03-14 13:35:17:840
-2.269703,5.286398,5.262456,8.0,49.826416,24.034079,332.0,NaN,5.544,3.5,235.2,23 / 28,430537,2020-03-14 13:35:18:341
1.23062,16.7642,6.167464,8.0,49.826416,24.034079,332.0,NaN,5.544,3.5,235.2,23 / 28,431036,2020-03-14 13:35:18:840
-0.225055,-6.785167,-3.586514,8.0,49.826416,24.034079,332.0,NaN,5.544,3.5,235.2,24 / 28,431536,2020-03-14 13:35:19:340
-3.366248,5.717354,2.480393,8.0,49.826416,24.034079,332.0,NaN,5.544,3.5,235.2,24 / 28,432036,2020-03-14 13:35:19:840
26.163836,31.335312,15.030798,8.0,49.826416,24.034079,332.0,NaN,5.544,3.5,235.2,22 / 28,432536,2020-03-14 13:35:20:340
15.20797,18.334797,5.707777,8.0,49.826416,24.034079,332.0,NaN,5.544,3.5,235.2,22 / 28,433036,2020-03-14 13:35:20:840
0.718261,14.618996,0.78051,8.0,49.826416,24.034079,332.0,NaN,5.544,3.5,235.2,23 / 28,433536,2020-03-14 13:35:21:340
3.064578,4.635175,0.574608,8.0,49.826416,24.034079,332.0,NaN,5.544,3.5,235.2,23 / 28,434036,2020-03-14 13:35:21:840
2.432509,8.714894,1.752556,8.0,49.826416,24.034079,332.0,NaN,5.544,3.5,235.2,22 / 28,434536,2020-03-14 13:35:22:340
0.56982,6.382942,0.909797,8.0,49.826416,24.034079,332.0,NaN,5.544,3.5,235.2,22 / 28,435036,2020-03-14 13:35:22:840
1.628057,9.710882,1.340753,8.0,49.826416,24.034079,332.0,NaN,5.544,3.5,235.2,23 / 28,435536,2020-03-14 13:35:23:340
2.269703,8.063671,-0.225055,0.0,49.826416,24.034079,332.0,NaN,5.544,3.5,235.2,23 / 28,436037,2020-03-14 13:35:23:841
5.602432,9.868899,4.204219,8.0,49.826416,24.034079,332.0,NaN,5.544,3.5,235.2,23 / 27,436536,2020-03-14 13:35:24:340
23.084892,31.680077,3.86903,8.0,49.826416,24.034079,332.0,NaN,5.544,3.5,235.2,23 / 27,437036,2020-03-14 13:35:24:840
-7.742848,-11.573571,1.187524,8.0,49.826416,24.034079,332.0,NaN,5.544,3.5,235.2,23 / 27,437536,2020-03-14 13:35:25:340
-7.225701,10.611102,13.512875,8.0,49.826416,24.034079,332.0,NaN,5.544,3.5,235.2,23 / 27,438036,2020-03-14 13:35:25:840
20.772095,39.188293,-3.404555,8.0,49.826416,24.034079,332.0,NaN,5.544,3.5,235.2,21 / 28,438536,2020-03-14 13:35:26:340
4.247314,-1.656788,-4.323928,8.0,49.826416,24.034079,332.0,NaN,5.544,3.5,235.2,21 / 28,439036,2020-03-14 13:35:26:840
-10.687716,8.365341,10.012551,8.0,49.826416,24.034079,332.0,NaN,5.544,3.5,235.2,22 / 28,439536,2020-03-14 13:35:27:340
31.598675,0.924162,1.599327,8.0,49.826416,24.034079,332.0,NaN,5.544,3.5,235.2,22 / 28,440036,2020-03-14 13:35:27:840
-0.723049,-21.677105,-5.090072,8.0,49.826416,24.034079,332.0,NaN,5.544,3.5,235.2,22 / 28,440536,2020-03-14 13:35:28:340
-4.113238,9.366117,4.625598,8.0,49.826416,24.034079,332.0,NaN,5.544,3.5,235.2,22 / 27,441037,2020-03-14 13:35:28:841
23.329102,13.972561,-5.961562,8.0,49.826416,24.034079,332.0,NaN,5.544,3.5,235.2,22 / 28,441536,2020-03-14 13:35:29:340
11.257536,21.916521,-6.828263,8.0,49.826416,24.034079,332.0,NaN,5.544,3.5,235.2,22 / 28,442036,2020-03-14 13:35:29:840
-8.470686,8.892065,-5.765238,8.0,49.826416,24.034079,332.0,NaN,5.544,3.5,235.2,23 / 28,442537,2020-03-14 13:35:30:341
6.713342,-12.459426,2.303222,8.0,49.826416,24.034079,332.0,NaN,5.544,3.5,235.2,23 / 28,443036,2020-03-14 13:35:30:840
6.694188,20.245367,-3.821146,8.0,49.826416,24.034079,332.0,NaN,5.544,3.5,235.2,22 / 28,443536,2020-03-14 13:35:31:340
6.622362,29.113491,-3.931279,8.0,49.826416,24.034079,332.0,NaN,5.544,3.5,235.2,22 / 28,444037,2020-03-14 13:35:31:841
-1.522712,-2.892196,-10.002975,8.0,49.826416,24.034079,332.0,NaN,5.544,3.5,235.2,22 / 28,444536,2020-03-14 13:35:32:340
7.465121,29.008148,12.617443,8.0,49.826416,24.034079,332.0,NaN,5.544,3.5,235.2,22 / 28,445036,2020-03-14 13:35:32:840
5.798757,21.308395,0.9912,8.0,49.826416,24.034079,332.0,NaN,5.544,3.5,235.2,22 / 28,445536,2020-03-14 13:35:33:340
0.402226,-9.643845,-2.647987,8.0,49.826416,24.034079,332.0,NaN,5.544,3.5,235.2,22 / 28,446037,2020-03-14 13:35:33:841
-2.245761,7.436391,1.675941,8.0,49.826416,24.034079,332.0,NaN,5.544,3.5,235.2,22 / 28,446536,2020-03-14 13:35:34:340
20.489578,17.324444,3.955221,8.0,49.826416,24.034079,332.0,NaN,5.544,3.5,235.2,22 / 28,447036,2020-03-14 13:35:34:840
12.047623,16.950949,9.284714,8.0,49.826416,24.034079,332.0,NaN,5.544,3.5,235.2,21 / 28,447537,2020-03-14 13:35:35:341
0.177171,14.987702,1.398214,8.0,49.826416,24.034079,332.0,NaN,5.544,3.5,235.2,21 / 28,448036,2020-03-14 13:35:35:840
-0.627281,-10.065224,-2.72939,8.0,49.826416,24.034079,332.0,NaN,5.544,3.5,235.2,22 / 28,448536,2020-03-14 13:35:36:340
13.900735,18.545486,9.557653,8.0,49.826416,24.034079,332.0,NaN,5.544,3.5,235.2,22 / 28,449036,2020-03-14 13:35:36:840
-1.331176,9.935937,-1.666364,8.0,49.826416,24.034079,332.0,NaN,5.544,3.5,235.2,22 / 25,449536,2020-03-14 13:35:37:340
6.014235,-5.616797,-6.775591,8.0,49.826416,24.034079,332.0,NaN,5.544,3.5,235.2,22 / 25,450037,2020-03-14 13:35:37:841
-2.839523,6.306328,5.975928,8.0,49.826416,24.034079,332.0,NaN,5.544,3.5,235.2,22 / 27,450536,2020-03-14 13:35:38:340
20.810402,29.84133,-6.119579,8.0,49.826416,24.034079,332.0,NaN,5.544,3.5,235.2,22 / 27,451036,2020-03-14 13:35:38:840
10.275913,8.887277,-4.529829,8.0,49.826416,24.034079,332.0,NaN,5.544,3.5,235.2,24 / 28,451537,2020-03-14 13:35:39:341
-5.760449,7.07726,-0.033519,8.0,49.826416,24.034079,332.0,NaN,5.544,3.5,235.2,24 / 28,452036,2020-03-14 13:35:39:840
3.907337,-9.279925,-3.394978,8.0,49.826416,24.034079,332.0,NaN,5.544,3.5,235.2,24 / 28,452536,2020-03-14 13:35:40:340
9.136273,6.713342,1.70946,8.0,49.826416,24.034079,332.0,NaN,5.544,3.5,235.2,24 / 28,453036,2020-03-14 13:35:40:840
-2.082955,8.652645,1.077391,8.0,49.826416,24.034079,332.0,NaN,5.544,3.5,235.2,22 / 28,453536,2020-03-14 13:35:41:340
5.31034,-6.871359,-3.490746,8.0,49.826416,24.034079,332.0,NaN,5.544,3.5,235.2,22 / 28,454036,2020-03-14 13:35:41:840
2.240973,7.546524,-1.364695,8.0,49.826416,24.034079,332.0,NaN,5.544,3.5,235.2,21 / 28,454537,2020-03-14 13:35:42:341
10.333375,17.520767,-0.699107,8.0,49.826416,24.034079,332.0,NaN,5.544,3.5,235.2,21 / 28,455036,2020-03-14 13:35:42:840
7.987057,16.82645,3.605668,8.0,49.826416,24.034079,332.0,NaN,5.544,3.5,235.2,21 / 28,455536,2020-03-14 13:35:43:340
-1.120486,13.565547,2.432509,8.0,49.826416,24.034079,332.0,NaN,5.544,3.5,235.2,21 / 28,456037,2020-03-14 13:35:43:841
4.1707,0.952892,-1.503559,8.0,49.826416,24.034079,332.0,NaN,5.544,3.5,235.2,21 / 28,456536,2020-03-14 13:35:44:340
-1.211466,5.406108,1.450886,8.0,49.826416,24.034079,332.0,NaN,5.544,3.5,235.2,24 / 28,457036,2020-03-14 13:35:44:840
16.582241,26.393679,9.615114,8.0,49.826416,24.034079,332.0,NaN,5.544,3.5,235.2,23 / 28,457537,2020-03-14 13:35:45:341
-0.579397,-3.098097,4.797981,8.0,49.826416,24.034079,332.0,NaN,5.544,3.5,235.2,23 / 28,458036,2020-03-14 13:35:45:840
-3.337517,4.553772,2.844312,8.0,49.826416,24.034079,332.0,NaN,5.544,3.5,235.2,23 / 28,458537,2020-03-14 13:35:46:341
5.583278,1.719037,-4.606444,8.0,49.826416,24.034079,332.0,NaN,5.544,3.5,235.2,23 / 28,459036,2020-03-14 13:35:46:840
-5.363012,3.342306,17.870321,8.0,49.826416,24.034079,332.0,NaN,5.544,3.5,235.2,23 / 27,459536,2020-03-14 13:35:47:340
-9.184157,9.672575,2.528277,8.0,49.826416,24.034079,332.0,NaN,5.544,3.5,235.2,23 / 27,460036,2020-03-14 13:35:47:840
6.785168,5.521029,0.488417,8.0,49.826416,24.034079,332.0,NaN,5.544,3.5,235.2,23 / 29,460538,2020-03-14 13:35:48:342
-29.534872,23.00349,5.78918,8.0,49.826416,24.034079,332.0,NaN,5.544,3.5,235.2,23 / 29,461036,2020-03-14 13:35:48:840
-7.235277,9.203311,-6.703765,8.0,49.826416,24.034079,332.0,NaN,5.544,3.5,235.2,22 / 29,461536,2020-03-14 13:35:49:340
2.389413,10.807426,3.256114,8.0,49.826416,24.034079,332.0,NaN,5.544,3.5,235.2,22 / 29,462037,2020-03-14 13:35:49:841
-7.771579,-3.758896,-0.909797,8.0,49.826416,24.034079,332.0,NaN,5.544,3.5,235.2,24 / 29,462537,2020-03-14 13:35:50:341
0.976834,13.608643,-2.365471,8.0,49.826416,24.034079,332.0,NaN,5.544,3.5,235.2,24 / 29,463036,2020-03-14 13:35:50:840
-8.753201,24.53099,4.007894,8.0,49.826416,24.034079,332.0,NaN,5.544,3.5,235.2,23 / 29,463536,2020-03-14 13:35:51:340
-5.813122,2.671929,-5.865794,8.0,49.826416,24.034079,332.0,NaN,5.544,3.5,235.2,23 / 29,464037,2020-03-14 13:35:51:841
3.227384,7.484275,-1.977611,8.0,49.826416,24.034079,332.0,NaN,5.544,3.5,235.2,23 / 29,464536,2020-03-14 13:35:52:340
-18.215086,25.890898,4.261679,8.0,49.826416,24.034079,332.0,NaN,5.544,3.5,235.2,23 / 29,465036,2020-03-14 13:35:52:840
0.957681,6.986281,-4.295198,8.0,49.826416,24.034079,332.0,NaN,5.544,3.5,235.2,23 / 29,465536,2020-03-14 13:35:53:340
5.415684,5.09965,-0.067038,8.0,49.826416,24.034079,332.0,NaN,5.544,3.5,235.2,23 / 29,466037,2020-03-14 13:35:53:841
-8.868123,-4.094085,-0.129287,8.0,49.826416,24.034079,332.0,NaN,5.544,3.5,235.2,24 / 29,466536,2020-03-14 13:35:54:340
0.766145,14.226347,0.129287,8.0,49.826416,24.034079,332.0,NaN,5.544,3.5,235.2,24 / 29,467036,2020-03-14 13:35:54:840
-19.747375,27.495012,-1.982399,8.0,49.826416,24.034079,332.0,NaN,5.544,3.5,235.2,24 / 29,467536,2020-03-14 13:35:55:340
-4.3766,12.765883,-0.062249,8.0,49.826416,24.034079,332.0,NaN,5.544,3.5,235.2,24 / 28,468037,2020-03-14 13:35:55:841
1.278504,14.18325,-2.346318,8.0,49.826416,24.034079,332.0,NaN,5.544,3.5,235.2,24 / 29,468536,2020-03-14 13:35:56:340
-5.051765,-4.505887,-1.043872,8.0,49.826416,24.034079,332.0,NaN,5.544,3.5,235.2,24 / 29,469036,2020-03-14 13:35:56:840
-1.206678,7.364565,-3.404555,8.0,49.826416,24.034079,332.0,NaN,5.544,3.5,235.2,24 / 29,469536,2020-03-14 13:35:57:340
-5.999869,23.132776,-7.062895,8.0,49.826416,24.034079,332.0,NaN,5.544,3.5,235.2,24 / 29,470036,2020-03-14 13:35:57:840
-1.838747,-5.48751,-3.591303,8.0,49.826416,24.034079,332.0,NaN,5.544,3.5,235.2,23 / 29,470537,2020-03-14 13:35:58:341
0.933739,5.99987,0.339977,8.0,49.826416,24.034079,332.0,NaN,5.544,3.5,235.2,23 / 29,471036,2020-03-14 13:35:58:840
-2.552219,11.760319,-5.755661,8.0,49.826416,24.034079,332.0,NaN,5.544,3.5,235.2,21 / 29,471536,2020-03-14 13:35:59:340
-4.994304,19.220652,-6.952761,8.0,49.826416,24.034079,332.0,NaN,5.544,3.5,235.2,21 / 29,472036,2020-03-14 13:35:59:840
1.149217,12.301409,3.797204,8.0,49.826416,24.034079,332.0,NaN,5.544,3.5,235.2,23 / 29,472536,2020-03-14 13:36:00:340
-4.314351,-3.150769,-6.569689,8.0,49.826416,24.034079,332.0,NaN,5.544,3.5,235.2,23 / 29,473036,2020-03-14 13:36:00:840
-0.804452,7.599196,1.924938,8.0,49.826416,24.034079,332.0,NaN,5.544,3.5,235.2,24 / 29,473536,2020-03-14 13:36:01:340
-15.787366,21.298819,-5.190629,8.0,49.826416,24.034079,332.0,NaN,5.544,3.5,235.2,24 / 29,474036,2020-03-14 13:36:01:840
-3.265691,-4.036624,-2.37026,8.0,49.826366,24.032433,332.0,NaN,3.888,3.0,256.5,23 / 29,474536,2020-03-14 13:36:02:340
0.062249,6.315904,-0.612916,8.0,49.826366,24.032433,332.0,NaN,3.888,3.0,256.5,23 / 29,475036,2020-03-14 13:36:02:840
-17.750612,29.022512,-2.073379,8.0,49.826366,24.032433,332.0,NaN,3.888,3.0,256.5,22 / 29,475536,2020-03-14 13:36:03:340
-2.466028,12.914324,-6.670246,8.0,49.826366,24.032433,332.0,NaN,3.888,3.0,256.5,22 / 29,476036,2020-03-14 13:36:03:840
1.537078,8.183381,-0.292093,8.0,49.826366,24.032433,332.0,NaN,3.888,3.0,256.5,24 / 29,476536,2020-03-14 13:36:04:340
-4.58729,-3.548207,-0.775721,8.0,49.826366,24.032433,332.0,NaN,3.888,3.0,256.5,24 / 29,477036,2020-03-14 13:36:04:840
1.422156,6.751649,3.792416,8.0,49.826366,24.032433,332.0,NaN,3.888,3.0,256.5,23 / 29,477536,2020-03-14 13:36:05:340
-10.869676,22.414516,0.215478,8.0,49.826366,24.032433,332.0,NaN,3.888,3.0,256.5,23 / 29,478036,2020-03-14 13:36:05:840
-2.925714,15.298949,-0.272939,8.0,49.826366,24.032433,332.0,NaN,3.888,3.0,256.5,24 / 29,478536,2020-03-14 13:36:06:340
3.394978,9.543288,0.588974,8.0,49.826366,24.032433,332.0,NaN,3.888,3.0,256.5,24 / 29,479036,2020-03-14 13:36:06:840
-9.916783,11.463438,-7.364564,8.0,49.826366,24.032433,332.0,NaN,3.888,3.0,256.5,24 / 27,479537,2020-03-14 13:36:07:341
-4.271256,18.784906,-5.640739,8.0,49.826366,24.032433,332.0,NaN,3.888,3.0,256.5,24 / 27,480036,2020-03-14 13:36:07:840
-1.939303,14.101848,2.145205,8.0,49.826366,24.032433,332.0,NaN,3.888,3.0,256.5,24 / 29,480537,2020-03-14 13:36:08:341
0.632069,-3.069367,6.373365,8.0,49.826366,24.032433,332.0,NaN,3.888,3.0,256.5,24 / 29,481036,2020-03-14 13:36:08:840
0.708684,7.819463,0.636858,8.0,49.826366,24.032433,332.0,NaN,3.888,3.0,256.5,24 / 29,481536,2020-03-14 13:36:09:340
1.168371,7.690176,-5.841852,8.0,49.826366,24.032433,332.0,NaN,3.888,3.0,256.5,24 / 29,482036,2020-03-14 13:36:09:840
-3.787627,22.902933,-7.987056,8.0,49.826366,24.032433,332.0,NaN,3.888,3.0,256.5,24 / 29,482536,2020-03-14 13:36:10:340
-3.1795,8.499416,2.365471,8.0,49.826366,24.032433,332.0,NaN,3.888,3.0,256.5,24 / 29,483036,2020-03-14 13:36:10:840
0.919373,-3.284845,-5.104438,8.0,49.826366,24.032433,332.0,NaN,3.888,3.0,256.5,24 / 29,483536,2020-03-14 13:36:11:340
-0.229843,9.083601,2.600103,8.0,49.826366,24.032433,332.0,NaN,3.888,3.0,256.5,24 / 30,484036,2020-03-14 13:36:11:840
-5.564124,24.842237,-2.456451,8.0,49.826366,24.032433,332.0,NaN,3.888,3.0,256.5,24 / 30,484536,2020-03-14 13:36:12:340
-4.458003,1.92015,-2.42772,8.0,49.826366,24.032433,332.0,NaN,3.888,3.0,256.5,24 / 30,485036,2020-03-14 13:36:12:840
2.853889,4.271256,-2.063802,8.0,49.826366,24.032433,332.0,NaN,3.888,3.0,256.5,23 / 30,485536,2020-03-14 13:36:13:340
-11.133038,3.303998,-1.872266,8.0,49.826366,24.032433,332.0,NaN,3.888,3.0,256.5,23 / 30,486036,2020-03-14 13:36:13:840
4.936844,12.717999,2.499547,8.0,49.826366,24.032433,332.0,NaN,3.888,3.0,256.5,24 / 30,486536,2020-03-14 13:36:14:340
-1.848324,19.58457,4.88896,8.0,49.826366,24.032433,332.0,NaN,3.888,3.0,256.5,24 / 30,487036,2020-03-14 13:36:14:840
2.810793,1.795651,-2.111686,8.0,49.826366,24.032433,332.0,NaN,3.888,3.0,256.5,23 / 29,487536,2020-03-14 13:36:15:340
-3.926491,17.650055,8.058883,8.0,49.826366,24.032433,332.0,NaN,3.888,3.0,256.5,23 / 29,488036,2020-03-14 13:36:15:840
-9.26556,21.543026,-2.011129,8.0,49.826366,24.032433,332.0,NaN,3.888,3.0,256.5,23 / 30,488536,2020-03-14 13:36:16:340
0.876278,0.761356,0.004788,8.0,49.826366,24.032433,332.0,NaN,3.888,3.0,256.5,23 / 30,489036,2020-03-14 13:36:16:840
2.494758,9.873688,-0.407014,8.0,49.826366,24.032433,332.0,NaN,3.888,3.0,256.5,24 / 30,489536,2020-03-14 13:36:17:340
-5.137956,-1.369483,1.877054,8.0,49.826366,24.032433,332.0,NaN,3.888,3.0,256.5,24 / 30,490036,2020-03-14 13:36:17:840
1.752556,15.093047,1.92015,8.0,49.826366,24.032433,332.0,NaN,3.888,3.0,256.5,22 / 29,490536,2020-03-14 13:36:18:340
-14.408306,25.565287,-11.611878,8.0,49.826366,24.032433,332.0,NaN,3.888,3.0,256.5,22 / 29,491036,2020-03-14 13:36:18:840
-1.034295,7.101202,-7.939172,8.0,49.826366,24.032433,332.0,NaN,3.888,3.0,256.5,24 / 29,491536,2020-03-14 13:36:19:340
-2.255338,8.796297,3.864242,8.0,49.826366,24.032433,332.0,NaN,3.888,3.0,256.5,24 / 29,492036,2020-03-14 13:36:19:840
-15.533581,27.791895,-6.641515,8.0,49.826366,24.032433,332.0,NaN,3.888,3.0,256.5,22 / 29,492536,2020-03-14 13:36:20:340
0.957681,3.864242,-5.477933,8.0,49.826366,24.032433,332.0,NaN,3.888,3.0,256.5,22 / 29,493036,2020-03-14 13:36:20:840
2.896984,10.601525,-1.053449,8.0,49.826366,24.032433,332.0,NaN,3.888,3.0,256.5,24 / 29,493536,2020-03-14 13:36:21:340
-8.394072,-4.529829,-3.232172,8.0,49.826366,24.032433,332.0,NaN,3.888,3.0,256.5,24 / 29,494036,2020-03-14 13:36:21:840
-1.661576,10.477027,-3.993528,8.0,49.826366,24.032433,332.0,NaN,3.888,3.0,256.5,23 / 30,494537,2020-03-14 13:36:22:341
-24.894909,32.522835,-9.26556,8.0,49.826366,24.032433,332.0,NaN,3.888,3.0,256.5,23 / 30,495036,2020-03-14 13:36:22:840
2.140417,14.84405,-17.736246,8.0,49.826366,24.032433,332.0,NaN,3.888,3.0,256.5,24 / 30,495536,2020-03-14 13:36:23:340
-1.867477,12.253524,-0.742202,8.0,49.826366,24.032433,332.0,NaN,3.888,3.0,256.5,24 / 30,496036,2020-03-14 13:36:23:840
-8.437167,23.774424,-4.654328,8.0,49.826366,24.032433,332.0,NaN,3.888,3.0,256.5,24 / 30,496536,2020-03-14 13:36:24:340
-11.032481,22.591688,-10.13705,8.0,49.826366,24.032433,332.0,NaN,3.888,3.0,256.5,24 / 30,497036,2020-03-14 13:36:24:840
-0.517148,15.394717,0.909797,8.0,49.826366,24.032433,332.0,NaN,3.888,3.0,256.5,23 / 30,497536,2020-03-14 13:36:25:340
-1.695095,-4.122815,0.086191,8.0,49.826366,24.032433,332.0,NaN,3.888,3.0,256.5,23 / 30,498036,2020-03-14 13:36:25:840
1.04866,7.594408,-5.918466,8.0,49.826366,24.032433,332.0,NaN,3.888,3.0,256.5,23 / 30,498536,2020-03-14 13:36:26:340
-1.666364,0.095768,-3.711012,8.0,49.826366,24.032433,332.0,NaN,3.888,3.0,256.5,23 / 30,499036,2020-03-14 13:36:26:840
-11.295844,24.856602,-1.431733,8.0,49.826366,24.032433,332.0,NaN,3.888,3.0,256.5,24 / 30,499537,2020-03-14 13:36:27:341
-20.321983,22.448034,-7.292738,8.0,49.826366,24.032433,332.0,NaN,3.888,3.0,256.5,24 / 30,500036,2020-03-14 13:36:27:840
1.197101,8.719683,0.646435,8.0,49.826366,24.032433,332.0,NaN,3.888,3.0,256.5,22 / 30,500536,2020-03-14 13:36:28:340
1.565808,18.555063,-8.092401,0.0,49.826366,24.032433,332.0,NaN,3.888,3.0,256.5,22 / 30,501036,2020-03-14 13:36:28:840
-4.022259,10.31901,-3.821146,8.0,49.826366,24.032433,332.0,NaN,3.888,3.0,256.5,22 / 30,501536,2020-03-14 13:36:29:340
-4.146757,14.18325,-9.423578,8.0,49.826366,24.032433,332.0,NaN,3.888,3.0,256.5,22 / 30,502037,2020-03-14 13:36:29:841
-0.177171,15.619772,-1.465251,8.0,49.826366,24.032433,332.0,NaN,3.888,3.0,256.5,22 / 30,502536,2020-03-14 13:36:30:340
-2.054225,-5.84664,5.707777,8.0,49.826366,24.032433,332.0,NaN,3.888,3.0,256.5,22 / 30,503036,2020-03-14 13:36:30:840
2.767697,6.095638,0.488417,8.0,49.826366,24.032433,332.0,NaN,3.888,3.0,256.5,23 / 30,503536,2020-03-14 13:36:31:340
-7.335834,10.783484,-4.472368,8.0,49.826366,24.032433,332.0,NaN,3.888,3.0,256.5,23 / 30,504036,2020-03-14 13:36:31:840
-3.040636,21.41374,-3.414132,8.0,49.826366,24.032433,332.0,NaN,3.888,3.0,256.5,23 / 30,504536,2020-03-14 13:36:32:340
0.550666,14.748282,-1.493982,8.0,49.826366,24.032433,332.0,NaN,3.888,3.0,256.5,23 / 30,505036,2020-03-14 13:36:32:840
-1.441309,-3.509899,-1.292869,8.0,49.826366,24.032433,332.0,NaN,3.888,3.0,256.5,24 / 30,505536,2020-03-14 13:36:33:340
-0.622492,7.747637,2.355895,8.0,49.826366,24.032433,332.0,NaN,3.888,3.0,256.5,24 / 30,506036,2020-03-14 13:36:33:840
2.834735,10.845734,0.426168,8.0,49.826366,24.032433,332.0,NaN,3.888,3.0,256.5,23 / 30,506537,2020-03-14 13:36:34:341
-8.140285,0.301669,-1.963245,8.0,49.826366,24.032433,332.0,NaN,3.888,3.0,256.5,23 / 30,507036,2020-03-14 13:36:34:840
1.029507,10.91756,-5.147533,8.0,49.826366,24.032433,332.0,NaN,3.888,3.0,256.5,22 / 29,507536,2020-03-14 13:36:35:340
-10.0748,26.57564,-1.987187,8.0,49.826366,24.032433,332.0,NaN,3.888,3.0,256.5,22 / 29,508036,2020-03-14 13:36:35:840
-5.358223,11.650186,-5.832275,8.0,49.826366,24.032433,332.0,NaN,3.888,3.0,256.5,22 / 29,508536,2020-03-14 13:36:36:340
2.451663,7.752425,-0.80924,8.0,49.826366,24.032433,332.0,NaN,3.888,3.0,256.5,22 / 29,509036,2020-03-14 13:36:36:840
-13.244724,-1.987187,0.023942,8.0,49.826366,24.032433,332.0,NaN,3.888,3.0,256.5,21 / 29,509536,2020-03-14 13:36:37:340
-0.92895,15.557523,0.253785,8.0,49.826366,24.032433,332.0,NaN,3.888,3.0,256.5,21 / 29,510036,2020-03-14 13:36:37:840
-6.876147,22.663513,-4.783615,8.0,49.826366,24.032433,332.0,NaN,3.888,3.0,256.5,23 / 30,510536,2020-03-14 13:36:38:340
