ACCELEROMETER X (m/s²),ACCELEROMETER Y (m/s²),ACCELEROMETER Z (m/s²),PROXIMITY (m),LOCATION Latitude : ,LOCATION Longitude : ,LOCATION Altitude ( m),LOCATION Altitude-google ( m),LOCATION Speed ( Kmh),LOCATION Accuracy ( m),LOCATION ORIENTATION (°),Satellites in range,Time since start in ms ,YYYY-MO-DD HH-MI-SS_SSS
2.164359,-1.522712,10.702082,8.0,49.82833,24.04652,359.0,NaN,11.628,9.0,138.7,16 / 18,35,2020-03-17 13:11:06:697
13.627796,16.984467,17.899052,8.0,49.82833,24.04652,359.0,NaN,11.628,9.0,138.7,16 / 18,535,2020-03-17 13:11:07:197
1.273715,-3.653552,-3.816357,8.0,49.82833,24.04652,359.0,NaN,11.628,9.0,138.7,15 / 18,1035,2020-03-17 13:11:07:697
1.278504,5.942409,7.096414,8.0,49.82833,24.04652,359.0,NaN,11.628,9.0,138.7,15 / 18,1535,2020-03-17 13:11:08:197
18.574217,5.57849,5.501876,8.0,49.82833,24.04652,359.0,NaN,11.628,9.0,138.7,18 / 20,2035,2020-03-17 13:11:08:697
6.315904,8.805874,-1.991976,8.0,49.82833,24.04652,359.0,NaN,11.628,9.0,138.7,18 / 20,2535,2020-03-17 13:11:09:197
-2.896984,6.483498,5.0374,8.0,49.82833,24.04652,359.0,NaN,11.628,9.0,138.7,19 / 22,3035,2020-03-17 13:11:09:697
1.254562,-5.24809,0.746991,8.0,49.82833,24.04652,359.0,NaN,11.628,9.0,138.7,19 / 22,3535,2020-03-17 13:11:10:197
7.52737,16.577452,5.420473,8.0,49.82833,24.04652,359.0,NaN,11.628,9.0,138.7,19 / 22,4035,2020-03-17 13:11:10:697
3.964798,15.251065,-0.933739,8.0,49.82833,24.04652,359.0,NaN,11.628,9.0,138.7,19 / 22,4535,2020-03-17 13:11:11:197
1.091756,-7.680599,-5.774814,8.0,49.82833,24.04652,359.0,NaN,11.628,9.0,138.7,19 / 22,5035,2020-03-17 13:11:11:697
-6.009446,7.029376,6.746861,8.0,49.82833,24.04652,359.0,NaN,11.628,9.0,138.7,19 / 22,5535,2020-03-17 13:11:12:197
19.01475,19.570204,10.879252,8.0,49.82833,24.04652,359.0,NaN,11.628,9.0,138.7,17 / 23,6035,2020-03-17 13:11:12:697
3.112462,-6.584054,-1.561019,8.0,49.82833,24.04652,359.0,NaN,11.628,9.0,138.7,17 / 23,6536,2020-03-17 13:11:13:198
0.818817,5.133168,8.887277,8.0,49.82833,24.04652,359.0,NaN,11.628,9.0,138.7,17 / 23,7036,2020-03-17 13:11:13:698
26.283546,26.216509,5.736508,8.0,49.82833,24.04652,359.0,NaN,11.628,9.0,138.7,17 / 23,7535,2020-03-17 13:11:14:197
2.394202,0.287304,-1.005565,8.0,49.82833,24.04652,359.0,NaN,11.628,9.0,138.7,15 / 23,8035,2020-03-17 13:11:14:697
-2.566584,5.12838,10.251971,8.0,49.82833,24.04652,359.0,NaN,11.628,9.0,138.7,15 / 23,8535,2020-03-17 13:11:15:197
7.153875,7.354988,4.869807,8.0,49.82833,24.04652,359.0,NaN,11.628,9.0,138.7,15 / 23,9035,2020-03-17 13:11:15:697
-2.073379,3.907337,12.272678,8.0,49.82833,24.04652,359.0,NaN,11.628,9.0,138.7,15 / 23,9535,2020-03-17 13:11:16:197
-4.639962,2.710236,9.217676,8.0,49.82833,24.04652,359.0,NaN,11.628,9.0,138.7,14 / 23,10035,2020-03-17 13:11:16:697
7.963115,4.951209,16.290148,8.0,49.82833,24.04652,359.0,NaN,11.628,9.0,138.7,14 / 23,10535,2020-03-17 13:11:17:197
5.535394,-0.837971,0.962469,8.0,49.82833,24.04652,359.0,NaN,11.628,9.0,138.7,14 / 23,11036,2020-03-17 13:11:17:698
1.345541,5.865794,1.910573,8.0,49.82833,24.04652,359.0,NaN,11.628,9.0,138.7,14 / 23,11535,2020-03-17 13:11:18:197
1.896208,-6.588843,-3.102885,8.0,49.82833,24.04652,359.0,NaN,11.628,9.0,138.7,14 / 23,12035,2020-03-17 13:11:18:697
24.119188,15.021221,9.840169,8.0,49.82833,24.04652,359.0,NaN,11.628,9.0,138.7,14 / 23,12535,2020-03-17 13:11:19:197
6.143522,13.709199,1.872266,8.0,49.82833,24.04652,359.0,NaN,11.628,9.0,138.7,16 / 23,13035,2020-03-17 13:11:19:697
0.181959,-6.751649,-6.703765,8.0,49.82833,24.04652,359.0,NaN,11.628,9.0,138.7,16 / 23,13535,2020-03-17 13:11:20:197
18.483236,7.283162,5.291186,8.0,49.82833,24.04652,359.0,NaN,11.628,9.0,138.7,17 / 23,14035,2020-03-17 13:11:20:697
23.329102,14.144943,5.568913,8.0,49.82833,24.04652,359.0,NaN,11.628,9.0,138.7,17 / 23,14535,2020-03-17 13:11:21:197
1.335965,-10.01734,-9.059659,8.0,49.82833,24.04652,359.0,NaN,11.628,9.0,138.7,16 / 23,15036,2020-03-17 13:11:21:698
18.124107,21.136015,11.152191,8.0,49.82833,24.04652,359.0,NaN,11.628,9.0,138.7,16 / 23,15535,2020-03-17 13:11:22:197
9.394848,18.334797,0.92895,8.0,49.82833,24.04652,359.0,NaN,11.628,9.0,138.7,15 / 23,16035,2020-03-17 13:11:22:697
1.733402,-6.445191,-3.414132,8.0,49.82833,24.04652,359.0,NaN,11.628,9.0,138.7,15 / 23,16536,2020-03-17 13:11:23:198
-2.164358,2.331953,3.031059,8.0,49.82833,24.04652,359.0,NaN,11.628,9.0,138.7,16 / 22,17036,2020-03-17 13:11:23:698
14.226347,14.590265,-4.424484,8.0,49.82833,24.04652,359.0,NaN,11.628,9.0,138.7,16 / 22,17535,2020-03-17 13:11:24:197
9.653421,14.614207,3.849877,8.0,49.82833,24.04652,359.0,NaN,11.628,9.0,138.7,18 / 22,18035,2020-03-17 13:11:24:697
4.29041,9.399636,-2.571372,8.0,49.82833,24.04652,359.0,NaN,11.628,9.0,138.7,18 / 22,18535,2020-03-17 13:11:25:197
39.188293,24.526203,2.39899,8.0,49.82833,24.04652,359.0,NaN,11.628,9.0,138.7,17 / 22,19036,2020-03-17 13:11:25:698
23.922865,2.58095,-0.737414,8.0,49.82833,24.04652,359.0,NaN,11.628,9.0,138.7,17 / 22,19536,2020-03-17 13:11:26:198
2.063802,12.904747,4.419697,8.0,49.82833,24.04652,359.0,NaN,11.628,9.0,138.7,18 / 22,20035,2020-03-17 13:11:26:697
0.593762,-13.594277,-1.460463,8.0,49.82833,24.04652,359.0,NaN,11.628,9.0,138.7,18 / 22,20535,2020-03-17 13:11:27:197
6.11958,10.544065,0.871489,8.0,49.82833,24.04652,359.0,NaN,11.628,9.0,138.7,19 / 22,21035,2020-03-17 13:11:27:697
30.636206,27.217285,19.570204,8.0,49.82833,24.04652,359.0,NaN,11.628,9.0,138.7,19 / 22,21535,2020-03-17 13:11:28:197
5.19063,-0.746991,-3.854665,8.0,49.82833,24.04652,359.0,NaN,11.628,9.0,138.7,20 / 21,22036,2020-03-17 13:11:28:698
-6.397307,5.525818,7.484275,8.0,49.82833,24.04652,359.0,NaN,11.628,9.0,138.7,20 / 21,22536,2020-03-17 13:11:29:198
14.518439,29.850906,7.570466,8.0,49.82833,24.04652,359.0,NaN,11.628,9.0,138.7,18 / 24,23036,2020-03-17 13:11:29:698
2.193089,-2.619257,-3.145981,8.0,49.82833,24.04652,359.0,NaN,11.628,9.0,138.7,18 / 24,23536,2020-03-17 13:11:30:198
-4.544194,5.171476,4.065354,8.0,49.82833,24.04652,359.0,NaN,11.628,9.0,138.7,22 / 24,24035,2020-03-17 13:11:30:697
-1.37906,-11.334151,-0.488417,8.0,49.82833,24.04652,359.0,NaN,11.628,9.0,138.7,22 / 24,24535,2020-03-17 13:11:31:197
7.953538,28.687325,7.082049,8.0,49.82833,24.04652,359.0,NaN,11.628,9.0,138.7,21 / 24,25035,2020-03-17 13:11:31:697
7.25922,21.188684,-3.576937,8.0,49.82833,24.04652,359.0,NaN,11.628,9.0,138.7,21 / 24,25536,2020-03-17 13:11:32:198
0.790087,-22.146366,-3.193865,8.0,49.82833,24.04652,359.0,NaN,11.628,9.0,138.7,23 / 25,26035,2020-03-17 13:11:32:697
-2.351106,9.370906,4.865018,8.0,49.82833,24.04652,359.0,NaN,11.628,9.0,138.7,23 / 25,26535,2020-03-17 13:11:33:197
2.145205,11.908759,1.503559,8.0,49.82833,24.04652,359.0,NaN,11.628,9.0,138.7,23 / 25,27035,2020-03-17 13:11:33:697
1.316811,-13.723564,-2.72939,8.0,49.82833,24.04652,359.0,NaN,11.628,9.0,138.7,23 / 25,27535,2020-03-17 13:11:34:197
7.800309,11.109096,8.911219,8.0,49.82833,24.04652,359.0,NaN,11.628,9.0,138.7,23 / 25,28035,2020-03-17 13:11:34:697
23.654713,33.514034,2.542642,8.0,49.82833,24.04652,359.0,NaN,11.628,9.0,138.7,23 / 25,28535,2020-03-17 13:11:35:197
-0.847547,-7.728483,0.785298,8.0,49.82833,24.04652,359.0,NaN,11.628,9.0,138.7,21 / 25,29035,2020-03-17 13:11:35:697
-0.71826,6.833052,4.778827,8.0,49.82833,24.04652,359.0,NaN,11.628,9.0,138.7,21 / 25,29535,2020-03-17 13:11:36:197
16.218323,10.25676,-4.683058,8.0,49.82833,24.04652,359.0,NaN,11.628,9.0,138.7,24 / 25,30036,2020-03-17 13:11:36:698
12.53604,18.02834,-4.568136,8.0,49.82833,24.04652,359.0,NaN,11.628,9.0,138.7,24 / 25,30535,2020-03-17 13:11:37:197
-1.182736,11.602302,-1.584961,8.0,49.82833,24.04652,359.0,NaN,11.628,9.0,138.7,22 / 25,31035,2020-03-17 13:11:37:697
2.504335,-10.534488,-3.643975,8.0,49.82833,24.04652,359.0,NaN,11.628,9.0,138.7,22 / 25,31535,2020-03-17 13:11:38:197
12.588713,12.880805,-0.033519,8.0,49.82833,24.04652,359.0,NaN,11.628,9.0,138.7,23 / 25,32035,2020-03-17 13:11:38:697
-4.994304,6.488287,-1.695095,8.0,49.82833,24.04652,359.0,NaN,11.628,9.0,138.7,23 / 25,32535,2020-03-17 13:11:39:197
2.585738,-12.445061,-6.655881,8.0,49.82833,24.04652,359.0,NaN,11.628,9.0,138.7,22 / 25,33036,2020-03-17 13:11:39:698
0.684742,8.643068,5.750873,8.0,49.82833,24.04652,359.0,NaN,11.628,9.0,138.7,22 / 25,33535,2020-03-17 13:11:40:197
30.971394,23.855825,8.633492,8.0,49.82833,24.04652,359.0,NaN,11.628,9.0,138.7,21 / 25,34035,2020-03-17 13:11:40:697
3.026271,2.959233,-2.561796,8.0,49.82833,24.04652,359.0,NaN,11.628,9.0,138.7,21 / 25,34535,2020-03-17 13:11:41:197
-4.592078,4.429273,1.077391,8.0,49.82833,24.04652,359.0,NaN,11.628,9.0,138.7,21 / 25,35035,2020-03-17 13:11:41:697
2.087744,-8.710106,-3.940856,8.0,49.82833,24.04652,359.0,NaN,11.628,9.0,138.7,21 / 25,35535,2020-03-17 13:11:42:197
3.213019,-3.414132,-0.861913,8.0,49.82833,24.04652,359.0,NaN,11.628,9.0,138.7,22 / 25,36036,2020-03-17 13:11:42:698
-4.304775,5.3678,6.698977,8.0,49.82833,24.04652,359.0,NaN,11.628,9.0,138.7,22 / 25,36535,2020-03-17 13:11:43:197
6.11958,-5.176264,-4.419696,8.0,49.82833,24.04652,359.0,NaN,11.628,9.0,138.7,23 / 25,37035,2020-03-17 13:11:43:697
18.693928,15.399506,19.785683,8.0,49.82833,24.04652,359.0,NaN,11.628,9.0,138.7,23 / 25,37535,2020-03-17 13:11:44:197
-1.455675,9.787497,8.039729,8.0,49.82833,24.04652,359.0,NaN,11.628,9.0,138.7,23 / 25,38035,2020-03-17 13:11:44:697
2.767697,-2.791639,-0.675165,8.0,49.82833,24.04652,359.0,NaN,11.628,9.0,138.7,23 / 25,38535,2020-03-17 13:11:45:197
5.147534,10.850522,4.711789,8.0,49.82833,24.04652,359.0,NaN,11.628,9.0,138.7,20 / 26,39036,2020-03-17 13:11:45:698
5.204995,2.8491,2.245761,8.0,49.82833,24.04652,359.0,NaN,11.628,9.0,138.7,20 / 26,39535,2020-03-17 13:11:46:197
4.386178,3.308787,1.719037,8.0,49.82833,24.04652,359.0,NaN,11.628,9.0,138.7,24 / 26,40035,2020-03-17 13:11:46:697
-0.416591,3.739743,4.821923,8.0,49.82833,24.04652,359.0,NaN,11.628,9.0,138.7,24 / 26,40535,2020-03-17 13:11:47:197
3.385401,-0.383072,7.187394,8.0,49.82833,24.04652,359.0,NaN,11.628,9.0,138.7,23 / 26,41035,2020-03-17 13:11:47:697
0.794875,-0.421379,11.080365,8.0,49.82833,24.04652,359.0,NaN,11.628,9.0,138.7,23 / 26,41536,2020-03-17 13:11:48:198
3.131616,7.647081,15.308526,8.0,49.82833,24.04652,359.0,NaN,11.628,9.0,138.7,22 / 26,42035,2020-03-17 13:11:48:697
1.599327,1.651999,9.619903,8.0,49.82833,24.04652,359.0,NaN,11.628,9.0,138.7,22 / 26,42535,2020-03-17 13:11:49:197
-1.719037,4.587291,9.629479,8.0,49.827522,24.045958,330.0,NaN,6.66,3.0,211.3,19 / 25,43035,2020-03-17 13:11:49:697
4.683059,0.972046,5.386954,8.0,49.827522,24.045958,330.0,NaN,6.66,3.0,211.3,19 / 25,43536,2020-03-17 13:11:50:198
2.796428,2.073379,7.996634,8.0,49.827522,24.045958,330.0,NaN,6.66,3.0,211.3,20 / 26,44035,2020-03-17 13:11:50:697
-4.620809,3.035848,5.33907,0.0,49.827522,24.045958,330.0,NaN,6.66,3.0,211.3,20 / 26,44536,2020-03-17 13:11:51:198
3.806781,0.023942,8.178593,8.0,49.827522,24.045958,330.0,NaN,6.66,3.0,211.3,23 / 26,45035,2020-03-17 13:11:51:697
-0.45011,4.783615,6.023812,8.0,49.827522,24.045958,330.0,NaN,6.66,3.0,211.3,23 / 26,45535,2020-03-17 13:11:52:197
1.067814,4.927267,16.97489,8.0,49.827522,24.045958,330.0,NaN,6.66,3.0,211.3,21 / 24,46035,2020-03-17 13:11:52:697
3.064578,5.846641,8.030153,8.0,49.827522,24.045958,330.0,NaN,6.66,3.0,211.3,21 / 24,46535,2020-03-17 13:11:53:197
-0.488417,4.826711,5.386954,8.0,49.827522,24.045958,330.0,NaN,6.66,3.0,211.3,21 / 25,47035,2020-03-17 13:11:53:697
3.8403,0.162806,2.868254,8.0,49.827522,24.045958,330.0,NaN,6.66,3.0,211.3,21 / 25,47535,2020-03-17 13:11:54:197
2.815581,6.066907,8.863335,8.0,49.827522,24.045958,330.0,NaN,6.66,3.0,211.3,18 / 25,48036,2020-03-17 13:11:54:698
-0.876278,4.434062,3.141193,8.0,49.827522,24.045958,330.0,NaN,6.66,3.0,211.3,18 / 25,48535,2020-03-17 13:11:55:197
3.399767,1.273715,7.331046,8.0,49.827522,24.045958,330.0,NaN,6.66,3.0,211.3,17 / 25,49035,2020-03-17 13:11:55:697
0.301669,6.019023,4.984728,8.0,49.827522,24.045958,330.0,NaN,6.66,3.0,211.3,17 / 25,49535,2020-03-17 13:11:56:197
5.406108,6.713342,16.687586,8.0,49.827522,24.045958,330.0,NaN,6.66,3.0,211.3,17 / 25,50035,2020-03-17 13:11:56:697
3.203442,2.557007,7.23049,8.0,49.827522,24.045958,330.0,NaN,6.66,3.0,211.3,17 / 25,50535,2020-03-17 13:11:57:197
-1.766921,5.324705,5.43005,8.0,49.827522,24.045958,330.0,NaN,6.66,3.0,211.3,15 / 25,51035,2020-03-17 13:11:57:697
3.792416,-4.204218,-2.954445,8.0,49.827522,24.045958,330.0,NaN,6.66,3.0,211.3,15 / 25,51535,2020-03-17 13:11:58:197
3.045425,-4.079719,-2.700659,8.0,49.827522,24.045958,330.0,NaN,6.66,3.0,211.3,16 / 25,52035,2020-03-17 13:11:58:697
-0.603339,5.281609,8.78672,8.0,49.827522,24.045958,330.0,NaN,6.66,3.0,211.3,16 / 25,52535,2020-03-17 13:11:59:197
12.057199,2.964022,-0.23942,8.0,49.827522,24.045958,330.0,NaN,6.66,3.0,211.3,19 / 25,53035,2020-03-17 13:11:59:697
20.09214,6.110003,9.744401,8.0,49.827522,24.045958,330.0,NaN,6.66,3.0,211.3,19 / 25,53535,2020-03-17 13:12:00:197
4.29041,9.303867,2.063802,8.0,49.827522,24.045958,330.0,NaN,6.66,3.0,211.3,18 / 25,54035,2020-03-17 13:12:00:697
2.044648,-10.117896,-4.79798,8.0,49.827522,24.045958,330.0,NaN,6.66,3.0,211.3,18 / 25,54536,2020-03-17 13:12:01:198
2.566584,5.324705,7.187394,8.0,49.827522,24.045958,330.0,NaN,6.66,3.0,211.3,19 / 25,55035,2020-03-17 13:12:01:697
26.216509,17.353174,18.420988,8.0,49.827522,24.045958,330.0,NaN,6.66,3.0,211.3,19 / 25,55535,2020-03-17 13:12:02:197
5.683835,-9.126697,-2.60968,8.0,49.827522,24.045958,330.0,NaN,6.66,3.0,211.3,19 / 25,56036,2020-03-17 13:12:02:698
3.926491,11.348516,6.722919,8.0,49.827522,24.045958,330.0,NaN,6.66,3.0,211.3,19 / 25,56535,2020-03-17 13:12:03:197
23.070528,24.74647,8.441956,8.0,49.827522,24.045958,330.0,NaN,6.66,3.0,211.3,18 / 25,57035,2020-03-17 13:12:03:697
10.141838,-3.950433,6.555324,8.0,49.827522,24.045958,330.0,NaN,6.66,3.0,211.3,18 / 25,57536,2020-03-17 13:12:04:198
-1.474828,5.056554,5.951986,8.0,49.827522,24.045958,330.0,NaN,6.66,3.0,211.3,19 / 25,58035,2020-03-17 13:12:04:697
4.434062,-3.86903,0.392649,8.0,49.827522,24.045958,330.0,NaN,6.66,3.0,211.3,19 / 25,58535,2020-03-17 13:12:05:197
22.4624,19.172768,11.96622,8.0,49.827522,24.045958,330.0,NaN,6.66,3.0,211.3,18 / 25,59036,2020-03-17 13:12:05:698
3.519477,11.860875,2.13084,8.0,49.827522,24.045958,330.0,NaN,6.66,3.0,211.3,18 / 25,59535,2020-03-17 13:12:06:197
3.581726,5.104438,-0.881066,8.0,49.827522,24.045958,330.0,NaN,6.66,3.0,211.3,18 / 24,60036,2020-03-17 13:12:06:698
16.687586,13.144167,6.272809,8.0,49.827522,24.045958,330.0,NaN,6.66,3.0,211.3,18 / 24,60535,2020-03-17 13:12:07:197
-0.052672,9.969456,0.483629,8.0,49.827522,24.045958,330.0,NaN,6.66,3.0,211.3,19 / 24,61035,2020-03-17 13:12:07:697
1.489194,-12.488156,-3.323152,8.0,49.827522,24.045958,330.0,NaN,6.66,3.0,211.3,19 / 24,61535,2020-03-17 13:12:08:197
3.921703,8.978256,7.891289,8.0,49.827522,24.045958,330.0,NaN,6.66,3.0,211.3,20 / 24,62035,2020-03-17 13:12:08:697
27.04969,19.76653,6.258444,8.0,49.827522,24.045958,330.0,NaN,6.66,3.0,211.3,20 / 24,62535,2020-03-17 13:12:09:197
11.990162,8.327033,1.527501,8.0,49.827522,24.045958,330.0,NaN,6.66,3.0,211.3,18 / 23,63035,2020-03-17 13:12:09:697
1.474828,9.495404,3.543419,8.0,49.827522,24.045958,330.0,NaN,6.66,3.0,211.3,18 / 23,63535,2020-03-17 13:12:10:197
22.577322,26.652254,-2.906561,8.0,49.827522,24.045958,330.0,NaN,6.66,3.0,211.3,19 / 24,64035,2020-03-17 13:12:10:697
4.194642,-5.171476,0.282516,8.0,49.827522,24.045958,330.0,NaN,6.66,3.0,211.3,19 / 24,64535,2020-03-17 13:12:11:197
1.556231,10.089166,1.503559,8.0,49.827522,24.045958,330.0,NaN,6.66,3.0,211.3,20 / 24,65035,2020-03-17 13:12:11:697
10.223241,2.169147,-4.592078,8.0,49.827522,24.045958,330.0,NaN,6.66,3.0,211.3,20 / 24,65536,2020-03-17 13:12:12:198
16.213533,14.159308,5.693412,8.0,49.827522,24.045958,330.0,NaN,6.66,3.0,211.3,20 / 24,66035,2020-03-17 13:12:12:697
-0.967257,10.860099,2.485181,8.0,49.827522,24.045958,330.0,NaN,6.66,3.0,211.3,20 / 24,66535,2020-03-17 13:12:13:197
1.197101,-10.453085,-2.710236,8.0,49.827522,24.045958,330.0,NaN,6.66,3.0,211.3,22 / 25,67036,2020-03-17 13:12:13:698
3.653552,8.044518,4.276045,8.0,49.827522,24.045958,330.0,NaN,6.66,3.0,211.3,22 / 25,67535,2020-03-17 13:12:14:197
-1.656788,8.576031,-0.052672,8.0,49.827522,24.045958,330.0,NaN,6.66,3.0,211.3,22 / 25,68035,2020-03-17 13:12:14:697
0.47884,-10.242394,-2.705448,8.0,49.827522,24.045958,330.0,NaN,6.66,3.0,211.3,22 / 25,68535,2020-03-17 13:12:15:197
6.971915,13.551182,4.13718,8.0,49.827522,24.045958,330.0,NaN,6.66,3.0,211.3,22 / 25,69035,2020-03-17 13:12:15:697
16.328455,18.061857,6.90009,8.0,49.827522,24.045958,330.0,NaN,6.66,3.0,211.3,22 / 25,69535,2020-03-17 13:12:16:197
0.751779,-2.006341,-2.336741,8.0,49.827522,24.045958,330.0,NaN,6.66,3.0,211.3,20 / 25,70035,2020-03-17 13:12:16:697
0.536301,8.202535,3.083732,8.0,49.827522,24.045958,330.0,NaN,6.66,3.0,211.3,20 / 25,70535,2020-03-17 13:12:17:197
6.6894,-3.835511,-2.212242,8.0,49.827522,24.045958,330.0,NaN,6.66,3.0,211.3,20 / 25,71035,2020-03-17 13:12:17:697
21.32276,23.922865,8.437167,8.0,49.827522,24.045958,330.0,NaN,6.66,3.0,211.3,20 / 25,71536,2020-03-17 13:12:18:198
4.678271,14.207192,1.04866,8.0,49.827522,24.045958,330.0,NaN,6.66,3.0,211.3,20 / 25,72035,2020-03-17 13:12:18:697
4.659117,2.815581,-4.170699,8.0,49.827522,24.045958,330.0,NaN,6.66,3.0,211.3,20 / 25,72536,2020-03-17 13:12:19:198
21.734564,10.146626,8.528147,8.0,49.827522,24.045958,330.0,NaN,6.66,3.0,211.3,18 / 24,73035,2020-03-17 13:12:19:697
3.021483,11.429919,-1.158794,8.0,49.827522,24.045958,330.0,NaN,6.66,3.0,211.3,18 / 24,73535,2020-03-17 13:12:20:197
0.268151,-7.623138,-6.382941,8.0,49.827522,24.045958,330.0,NaN,6.66,3.0,211.3,20 / 24,74035,2020-03-17 13:12:20:697
2.264915,7.747637,4.050989,8.0,49.827522,24.045958,330.0,NaN,6.66,3.0,211.3,20 / 24,74535,2020-03-17 13:12:21:197
27.121517,21.241358,7.661446,8.0,49.827522,24.045958,330.0,NaN,6.66,3.0,211.3,20 / 24,75036,2020-03-17 13:12:21:698
8.422802,6.751649,6.26802,8.0,49.827522,24.045958,330.0,NaN,6.66,3.0,211.3,20 / 24,75535,2020-03-17 13:12:22:197
-1.422156,8.920795,-1.570596,8.0,49.827522,24.045958,330.0,NaN,6.66,3.0,211.3,22 / 24,76035,2020-03-17 13:12:22:697
18.157625,19.01475,18.0858,8.0,49.827522,24.045958,330.0,NaN,6.66,3.0,211.3,22 / 24,76535,2020-03-17 13:12:23:197
3.715801,-1.489193,-3.294421,8.0,49.827522,24.045958,330.0,NaN,6.66,3.0,211.3,20 / 23,77035,2020-03-17 13:12:23:697
0.871489,9.370906,4.932056,8.0,49.827522,24.045958,330.0,NaN,6.66,3.0,211.3,20 / 23,77535,2020-03-17 13:12:24:197
2.647987,-8.149862,-4.323928,8.0,49.827522,24.045958,330.0,NaN,6.66,3.0,211.3,20 / 23,78035,2020-03-17 13:12:24:697
7.910443,19.057846,6.512229,8.0,49.827522,24.045958,330.0,NaN,6.66,3.0,211.3,20 / 23,78535,2020-03-17 13:12:25:197
14.556746,17.27177,11.549629,8.0,49.827522,24.045958,330.0,NaN,6.66,3.0,211.3,21 / 23,79035,2020-03-17 13:12:25:697
2.590526,-1.321599,-2.327164,8.0,49.827522,24.045958,330.0,NaN,6.66,3.0,211.3,21 / 23,79535,2020-03-17 13:12:26:197
4.553772,12.344504,8.753201,8.0,49.827522,24.045958,330.0,NaN,6.66,3.0,211.3,20 / 23,80035,2020-03-17 13:12:26:697
6.459556,12.488156,3.581726,8.0,49.827522,24.045958,330.0,NaN,6.66,3.0,211.3,20 / 23,80536,2020-03-17 13:12:27:198
2.585738,-10.663774,-3.691859,8.0,49.827522,24.045958,330.0,NaN,6.66,3.0,211.3,20 / 23,81035,2020-03-17 13:12:27:697
6.6894,10.002975,6.363788,8.0,49.827522,24.045958,330.0,NaN,6.66,3.0,211.3,20 / 23,81535,2020-03-17 13:12:28:197
22.7928,20.714634,5.793968,8.0,49.827522,24.045958,330.0,NaN,6.66,3.0,211.3,19 / 23,82035,2020-03-17 13:12:28:697
4.371813,-1.417367,-4.161122,8.0,49.827522,24.045958,330.0,NaN,6.66,3.0,211.3,19 / 23,82536,2020-03-17 13:12:29:198
1.915361,8.973468,3.648764,8.0,49.827522,24.045958,330.0,NaN,6.66,3.0,211.3,20 / 23,83035,2020-03-17 13:12:29:697
3.15077,-6.842628,-3.620033,8.0,49.827522,24.045958,330.0,NaN,6.66,3.0,211.3,20 / 23,83535,2020-03-17 13:12:30:197
20.087353,19.211075,-2.533065,8.0,49.827522,24.045958,330.0,NaN,6.66,3.0,211.3,22 / 23,84035,2020-03-17 13:12:30:697
3.955221,11.008539,6.952762,8.0,49.827522,24.045958,330.0,NaN,6.66,3.0,211.3,22 / 23,84535,2020-03-17 13:12:31:197
-1.513135,-13.28782,-4.525041,8.0,49.827522,24.045958,330.0,NaN,6.66,3.0,211.3,22 / 23,85035,2020-03-17 13:12:31:697
8.2169,13.273455,5.286398,8.0,49.827522,24.045958,330.0,NaN,6.66,3.0,211.3,22 / 23,85536,2020-03-17 13:12:32:198
26.637888,24.914062,7.082049,8.0,49.827522,24.045958,330.0,NaN,6.66,3.0,211.3,19 / 23,86035,2020-03-17 13:12:32:697
1.326388,-4.979939,-2.30801,8.0,49.827522,24.045958,330.0,NaN,6.66,3.0,211.3,19 / 23,86535,2020-03-17 13:12:33:197
26.791117,24.17186,8.916007,8.0,49.827522,24.045958,330.0,NaN,6.66,3.0,211.3,19 / 23,87036,2020-03-17 13:12:33:698
4.898537,12.952631,1.283292,8.0,49.827522,24.045958,330.0,NaN,6.66,3.0,211.3,19 / 23,87535,2020-03-17 13:12:34:197
2.044648,-6.598419,-5.415684,8.0,49.827522,24.045958,330.0,NaN,6.66,3.0,211.3,19 / 22,88035,2020-03-17 13:12:34:697
0.459687,6.0286,1.944092,8.0,49.827522,24.045958,330.0,NaN,6.66,3.0,211.3,19 / 22,88535,2020-03-17 13:12:35:197
10.089166,7.623139,-0.316035,8.0,49.827522,24.045958,330.0,NaN,6.66,3.0,211.3,20 / 23,89035,2020-03-17 13:12:35:697
19.04827,12.502522,4.774039,8.0,49.827522,24.045958,330.0,NaN,6.66,3.0,211.3,20 / 23,89535,2020-03-17 13:12:36:197
4.414908,12.531252,0.866701,8.0,49.827522,24.045958,330.0,NaN,6.66,3.0,211.3,23 / 24,90035,2020-03-17 13:12:36:697
12.497733,7.264008,-3.031059,8.0,49.827522,24.045958,330.0,NaN,6.66,3.0,211.3,23 / 24,90535,2020-03-17 13:12:37:197
14.623784,12.785037,3.433285,8.0,49.827053,24.04473,333.0,NaN,6.804,2.5,261.4,22 / 25,91036,2020-03-17 13:12:37:698
1.814805,10.524911,1.532289,8.0,49.827053,24.04473,333.0,NaN,6.804,2.5,261.4,22 / 25,91536,2020-03-17 13:12:38:198
0.622492,-11.080365,0.158017,8.0,49.827053,24.04473,333.0,NaN,6.804,2.5,261.4,22 / 25,92035,2020-03-17 13:12:38:697
1.80044,5.861006,-0.727837,8.0,49.827053,24.04473,333.0,NaN,6.804,2.5,261.4,22 / 25,92535,2020-03-17 13:12:39:197
13.876793,1.991976,-2.619257,8.0,49.827053,24.04473,333.0,NaN,6.804,2.5,261.4,20 / 25,93035,2020-03-17 13:12:39:697
34.093433,23.520638,5.31034,8.0,49.827053,24.04473,333.0,NaN,6.804,2.5,261.4,20 / 25,93536,2020-03-17 13:12:40:198
6.95755,14.408306,3.462016,8.0,49.827053,24.04473,333.0,NaN,6.804,2.5,261.4,23 / 25,94035,2020-03-17 13:12:40:697
3.912126,-3.600879,-1.240196,8.0,49.827053,24.04473,333.0,NaN,6.804,2.5,261.4,23 / 25,94535,2020-03-17 13:12:41:197
-0.684742,13.814544,1.661576,8.0,49.827053,24.04473,333.0,NaN,6.804,2.5,261.4,20 / 25,95036,2020-03-17 13:12:41:698
29.113491,21.509508,6.354212,8.0,49.827053,24.04473,333.0,NaN,6.804,2.5,261.4,20 / 25,95535,2020-03-17 13:12:42:197
7.441179,8.738836,-0.172383,8.0,49.827053,24.04473,333.0,NaN,6.804,2.5,261.4,21 / 24,96035,2020-03-17 13:12:42:697
5.631162,11.247959,4.237737,8.0,49.827053,24.04473,333.0,NaN,6.804,2.5,261.4,21 / 24,96535,2020-03-17 13:12:43:197
7.953538,9.232041,-1.431733,8.0,49.827053,24.04473,333.0,NaN,6.804,2.5,261.4,21 / 25,97035,2020-03-17 13:12:43:697
7.661446,7.996634,0.531513,8.0,49.827053,24.04473,333.0,NaN,6.804,2.5,261.4,21 / 25,97536,2020-03-17 13:12:44:198
5.248091,6.890513,-3.648763,8.0,49.827053,24.04473,333.0,NaN,6.804,2.5,261.4,21 / 26,98035,2020-03-17 13:12:44:697
24.621971,14.082694,9.380483,8.0,49.827053,24.04473,333.0,NaN,6.804,2.5,261.4,21 / 26,98535,2020-03-17 13:12:45:197
5.434838,6.483498,4.276045,8.0,49.827053,24.04473,333.0,NaN,6.804,2.5,261.4,23 / 26,99035,2020-03-17 13:12:45:697
18.176779,10.084377,-0.191536,8.0,49.827053,24.04473,333.0,NaN,6.804,2.5,261.4,23 / 26,99536,2020-03-17 13:12:46:198
18.6221,9.26556,5.932832,8.0,49.827053,24.04473,333.0,NaN,6.804,2.5,261.4,22 / 26,100036,2020-03-17 13:12:46:698
-5.559336,5.353435,1.149217,8.0,49.827053,24.04473,333.0,NaN,6.804,2.5,261.4,22 / 26,100536,2020-03-17 13:12:47:198
-0.459687,-14.480132,-3.811569,8.0,49.827053,24.04473,333.0,NaN,6.804,2.5,261.4,22 / 26,101035,2020-03-17 13:12:47:697
10.802638,19.067423,3.897761,8.0,49.827053,24.04473,333.0,NaN,6.804,2.5,261.4,22 / 26,101535,2020-03-17 13:12:48:197
0.56982,10.065224,-0.181959,8.0,49.827053,24.04473,333.0,NaN,6.804,2.5,261.4,22 / 27,102035,2020-03-17 13:12:48:697
1.331176,-6.603208,-5.511452,8.0,49.827053,24.04473,333.0,NaN,6.804,2.5,261.4,22 / 27,102535,2020-03-17 13:12:49:197
27.585993,14.618996,0.56982,8.0,49.827053,24.04473,333.0,NaN,6.804,2.5,261.4,21 / 27,103036,2020-03-17 13:12:49:698
1.125275,9.021352,1.963245,8.0,49.827053,24.04473,333.0,NaN,6.804,2.5,261.4,21 / 27,103535,2020-03-17 13:12:50:197
-1.891419,-13.062764,-3.174711,8.0,49.827053,24.04473,333.0,NaN,6.804,2.5,261.4,21 / 27,104035,2020-03-17 13:12:50:697
-5.152322,10.184934,2.346318,8.0,49.827053,24.04473,333.0,NaN,6.804,2.5,261.4,21 / 27,104535,2020-03-17 13:12:51:197
37.01436,34.390312,-1.412579,8.0,49.827053,24.04473,333.0,NaN,6.804,2.5,261.4,22 / 27,105035,2020-03-17 13:12:51:697
9.830592,6.272809,1.211466,8.0,49.827053,24.04473,333.0,NaN,6.804,2.5,261.4,22 / 27,105535,2020-03-17 13:12:52:197
-3.275268,11.880029,6.617574,8.0,49.827053,24.04473,333.0,NaN,6.804,2.5,261.4,21 / 26,106035,2020-03-17 13:12:52:697
17.937359,-1.915361,-7.551312,8.0,49.827053,24.04473,333.0,NaN,6.804,2.5,261.4,21 / 26,106535,2020-03-17 13:12:53:197
-2.896984,-10.529699,-6.74686,8.0,49.827053,24.04473,333.0,NaN,6.804,2.5,261.4,21 / 26,107035,2020-03-17 13:12:53:697
2.063802,11.769896,4.448427,8.0,49.827053,24.04473,333.0,NaN,6.804,2.5,261.4,21 / 26,107535,2020-03-17 13:12:54:197
34.48608,27.198132,13.340492,8.0,49.827053,24.04473,333.0,NaN,6.804,2.5,261.4,21 / 26,108035,2020-03-17 13:12:54:697
4.237737,-1.805228,-0.560243,8.0,49.827053,24.04473,333.0,NaN,6.804,2.5,261.4,21 / 26,108536,2020-03-17 13:12:55:198
2.964022,8.777143,1.714248,8.0,49.827053,24.04473,333.0,NaN,6.804,2.5,261.4,20 / 25,109035,2020-03-17 13:12:55:697
1.517924,-7.575254,0.526724,8.0,49.827053,24.04473,333.0,NaN,6.804,2.5,261.4,20 / 25,109535,2020-03-17 13:12:56:197
6.406884,12.636597,6.052542,8.0,49.827053,24.04473,333.0,NaN,6.804,2.5,261.4,20 / 26,110036,2020-03-17 13:12:56:698
24.827871,15.840038,-3.102885,8.0,49.827053,24.04473,333.0,NaN,6.804,2.5,261.4,20 / 26,110536,2020-03-17 13:12:57:198
2.863465,-13.761871,-6.488286,8.0,49.827053,24.04473,333.0,NaN,6.804,2.5,261.4,21 / 26,111035,2020-03-17 13:12:57:697
9.744401,16.01721,7.623139,8.0,49.827053,24.04473,333.0,NaN,6.804,2.5,261.4,21 / 26,111535,2020-03-17 13:12:58:197
17.855959,23.530214,5.023035,8.0,49.827053,24.04473,333.0,NaN,6.804,2.5,261.4,19 / 26,112035,2020-03-17 13:12:58:697
1.714248,-3.203442,-1.810016,8.0,49.827053,24.04473,333.0,NaN,6.804,2.5,261.4,19 / 26,112536,2020-03-17 13:12:59:198
1.896208,12.090718,4.764462,8.0,49.827053,24.04473,333.0,NaN,6.804,2.5,261.4,23 / 26,113035,2020-03-17 13:12:59:697
0.435745,-8.963891,-0.861913,8.0,49.827053,24.04473,333.0,NaN,6.804,2.5,261.4,23 / 26,113535,2020-03-17 13:13:00:197
30.37763,25.187002,2.705448,8.0,49.827053,24.04473,333.0,NaN,6.804,2.5,261.4,22 / 26,114036,2020-03-17 13:13:00:698
-0.086191,13.690045,2.892196,8.0,49.827053,24.04473,333.0,NaN,6.804,2.5,261.4,22 / 26,114535,2020-03-17 13:13:01:197
31.72796,36.01358,-12.406754,8.0,49.827053,24.04473,333.0,NaN,6.804,2.5,261.4,22 / 26,115035,2020-03-17 13:13:01:697
3.562572,-2.015918,-4.041412,8.0,49.827053,24.04473,333.0,NaN,6.804,2.5,261.4,22 / 26,115535,2020-03-17 13:13:02:197
2.710236,12.564771,2.106898,8.0,49.827053,24.04473,333.0,NaN,6.804,2.5,261.4,22 / 26,116035,2020-03-17 13:13:02:697
19.019539,8.183381,-5.39653,8.0,49.827053,24.04473,333.0,NaN,6.804,2.5,261.4,22 / 26,116536,2020-03-17 13:13:03:198
20.010738,15.768212,8.360553,8.0,49.827053,24.04473,333.0,NaN,6.804,2.5,261.4,20 / 27,117035,2020-03-17 13:13:03:697
0.268151,11.353305,2.442086,8.0,49.827053,24.04473,333.0,NaN,6.804,2.5,261.4,20 / 27,117535,2020-03-17 13:13:04:197
3.782839,-11.075577,-1.398214,8.0,49.827053,24.04473,333.0,NaN,6.804,2.5,261.4,21 / 27,118036,2020-03-17 13:13:04:698
11.760319,16.725893,2.925715,8.0,49.827053,24.04473,333.0,NaN,6.804,2.5,261.4,21 / 27,118535,2020-03-17 13:13:05:197
11.051635,21.011515,-3.385401,8.0,49.827053,24.04473,333.0,NaN,6.804,2.5,261.4,19 / 27,119035,2020-03-17 13:13:05:697
7.814675,2.39899,-1.704672,8.0,49.827053,24.04473,333.0,NaN,6.804,2.5,261.4,19 / 27,119535,2020-03-17 13:13:06:197
9.260772,13.599066,-1.403002,8.0,49.827053,24.04473,333.0,NaN,6.804,2.5,261.4,20 / 27,120036,2020-03-17 13:13:06:698
26.020184,16.965311,-3.639186,8.0,49.827053,24.04473,333.0,NaN,6.804,2.5,261.4,20 / 27,120535,2020-03-17 13:13:07:197
19.249382,11.195287,-0.172383,8.0,49.827053,24.04473,333.0,NaN,6.804,2.5,261.4,21 / 27,121035,2020-03-17 13:13:07:697
13.10586,15.878345,3.98874,8.0,49.827053,24.04473,333.0,NaN,6.804,2.5,261.4,21 / 27,121535,2020-03-17 13:13:08:197
2.552219,-5.12838,-1.422156,8.0,49.827053,24.04473,333.0,NaN,6.804,2.5,261.4,22 / 27,122035,2020-03-17 13:13:08:697
0.560243,3.979163,4.52983,8.0,49.827053,24.04473,333.0,NaN,6.804,2.5,261.4,22 / 27,122536,2020-03-17 13:13:09:198
4.630386,-2.762909,0.383072,8.0,49.827053,24.04473,333.0,NaN,6.804,2.5,261.4,22 / 27,123036,2020-03-17 13:13:09:698
7.685388,10.117896,2.011129,8.0,49.827053,24.04473,333.0,NaN,6.804,2.5,261.4,22 / 27,123535,2020-03-17 13:13:10:197
0.550666,7.07726,1.599327,8.0,49.827053,24.04473,333.0,NaN,6.804,2.5,261.4,23 / 27,124035,2020-03-17 13:13:10:697
1.656788,-8.331821,-0.344765,8.0,49.827053,24.04473,333.0,NaN,6.804,2.5,261.4,23 / 27,124536,2020-03-17 13:13:11:198
9.907207,10.730812,3.634398,8.0,49.827053,24.04473,333.0,NaN,6.804,2.5,261.4,22 / 27,125035,2020-03-17 13:13:11:697
28.66817,25.34023,3.457227,8.0,49.827053,24.04473,333.0,NaN,6.804,2.5,261.4,22 / 27,125535,2020-03-17 13:13:12:197
5.564125,0.220267,-4.247314,8.0,49.827053,24.04473,333.0,NaN,6.804,2.5,261.4,23 / 27,126035,2020-03-17 13:13:12:697
-1.316811,3.404555,-2.082955,8.0,49.827053,24.04473,333.0,NaN,6.804,2.5,261.4,23 / 27,126535,2020-03-17 13:13:13:197
4.132392,-8.963891,-3.648763,8.0,49.827053,24.04473,333.0,NaN,6.804,2.5,261.4,21 / 27,127036,2020-03-17 13:13:13:698
16.457743,21.025879,17.688362,8.0,49.827053,24.04473,333.0,NaN,6.804,2.5,261.4,21 / 27,127535,2020-03-17 13:13:14:197
9.940725,19.407398,1.417368,8.0,49.827053,24.04473,333.0,NaN,6.804,2.5,261.4,23 / 27,128035,2020-03-17 13:13:14:697
10.544065,-3.289633,-4.692635,8.0,49.827053,24.04473,333.0,NaN,6.804,2.5,261.4,23 / 27,128535,2020-03-17 13:13:15:197
14.848839,9.581595,11.832145,8.0,49.827053,24.04473,333.0,NaN,6.804,2.5,261.4,23 / 27,129036,2020-03-17 13:13:15:698
5.961562,14.326903,3.835511,8.0,49.827053,24.04473,333.0,NaN,6.804,2.5,261.4,23 / 27,129535,2020-03-17 13:13:16:197
2.983175,-13.215993,-3.289633,8.0,49.827053,24.04473,333.0,NaN,6.804,2.5,261.4,23 / 27,130035,2020-03-17 13:13:16:697
9.648633,10.716447,6.483498,8.0,49.827053,24.04473,333.0,NaN,6.804,2.5,261.4,23 / 27,130535,2020-03-17 13:13:17:197
17.295713,23.487118,8.777143,8.0,49.827053,24.04473,333.0,NaN,6.804,2.5,261.4,22 / 27,131035,2020-03-17 13:13:17:697
0.560243,-3.385401,0.095768,8.0,49.827053,24.04473,333.0,NaN,6.804,2.5,261.4,22 / 27,131535,2020-03-17 13:13:18:197
-2.619257,9.069236,7.11078,8.0,49.827053,24.04473,333.0,NaN,6.804,2.5,261.4,23 / 27,132035,2020-03-17 13:13:18:697
-0.651223,10.127473,2.633622,8.0,49.827053,24.04473,333.0,NaN,6.804,2.5,261.4,23 / 27,132535,2020-03-17 13:13:19:197
6.464345,-13.340492,2.705448,8.0,49.827053,24.04473,333.0,NaN,6.804,2.5,261.4,22 / 27,133035,2020-03-17 13:13:19:697
12.464214,13.958196,3.040636,8.0,49.827053,24.04473,333.0,NaN,6.804,2.5,261.4,22 / 27,133535,2020-03-17 13:13:20:197
15.758636,25.268404,3.653552,8.0,49.827053,24.04473,333.0,NaN,6.804,2.5,261.4,22 / 27,134036,2020-03-17 13:13:20:698
1.508347,-6.320692,-1.599327,8.0,49.827053,24.04473,333.0,NaN,6.804,2.5,261.4,22 / 27,134535,2020-03-17 13:13:21:197
4.596867,13.340492,5.142745,8.0,49.827053,24.04473,333.0,NaN,6.804,2.5,261.4,22 / 26,135035,2020-03-17 13:13:21:697
24.17665,13.752295,-0.134075,8.0,49.827053,24.04473,333.0,NaN,6.804,2.5,261.4,22 / 26,135536,2020-03-17 13:13:22:198
18.741812,16.127342,-1.053449,8.0,49.827053,24.04473,333.0,NaN,6.804,2.5,261.4,22 / 27,136036,2020-03-17 13:13:22:698
-1.762132,9.088389,-0.842759,8.0,49.827053,24.04473,333.0,NaN,6.804,2.5,261.4,22 / 27,136535,2020-03-17 13:13:23:197
30.688877,22.270864,6.703765,8.0,49.827053,24.04473,333.0,NaN,6.804,2.5,261.4,22 / 27,137035,2020-03-17 13:13:23:697
10.146626,2.293645,-3.974375,8.0,49.827053,24.04473,333.0,NaN,6.804,2.5,261.4,22 / 27,137535,2020-03-17 13:13:24:197
-2.75812,4.917691,-0.804452,8.0,49.827053,24.04473,333.0,NaN,6.804,2.5,261.4,21 / 25,138035,2020-03-17 13:13:24:697
7.589619,-5.559336,-5.592855,8.0,49.827053,24.04473,333.0,NaN,6.804,2.5,261.4,21 / 25,138535,2020-03-17 13:13:25:197
15.275007,23.127989,3.797204,8.0,49.82746,24.043604,344.0,NaN,6.984,3.5,304.1,21 / 24,139036,2020-03-17 13:13:25:698
4.122815,15.907076,1.177947,8.0,49.82746,24.043604,344.0,NaN,6.984,3.5,304.1,21 / 24,139535,2020-03-17 13:13:26:197
0.833182,-11.046846,-12.29662,8.0,49.82746,24.043604,344.0,NaN,6.984,3.5,304.1,21 / 26,140035,2020-03-17 13:13:26:697
2.442086,7.603985,5.535394,8.0,49.82746,24.043604,344.0,NaN,6.984,3.5,304.1,21 / 26,140536,2020-03-17 13:13:27:198
27.748798,26.024973,4.261679,8.0,49.82746,24.043604,344.0,NaN,6.984,3.5,304.1,23 / 27,141035,2020-03-17 13:13:27:697
2.442086,-10.400413,-0.459687,8.0,49.82746,24.043604,344.0,NaN,6.984,3.5,304.1,23 / 27,141535,2020-03-17 13:13:28:197
22.151154,26.609158,10.783484,8.0,49.82746,24.043604,344.0,NaN,6.984,3.5,304.1,23 / 27,142036,2020-03-17 13:13:28:698
4.271256,16.323668,2.72939,8.0,49.82746,24.043604,344.0,NaN,6.984,3.5,304.1,23 / 27,142535,2020-03-17 13:13:29:197
2.025495,-9.485827,-6.210559,8.0,49.82746,24.043604,344.0,NaN,6.984,3.5,304.1,22 / 27,143035,2020-03-17 13:13:29:697
1.35033,8.494628,4.845865,8.0,49.82746,24.043604,344.0,NaN,6.984,3.5,304.1,22 / 27,143536,2020-03-17 13:13:30:198
29.913157,26.709715,-2.092532,8.0,49.82746,24.043604,344.0,NaN,6.984,3.5,304.1,21 / 27,144035,2020-03-17 13:13:30:697
8.643068,2.173935,-7.910442,8.0,49.82746,24.043604,344.0,NaN,6.984,3.5,304.1,21 / 27,144535,2020-03-17 13:13:31:197
-2.724601,6.172252,0.684742,8.0,49.82746,24.043604,344.0,NaN,6.984,3.5,304.1,21 / 27,145035,2020-03-17 13:13:31:697
-4.036624,-13.52724,-0.47884,8.0,49.82746,24.043604,344.0,NaN,6.984,3.5,304.1,21 / 27,145536,2020-03-17 13:13:32:198
-0.804452,-4.22816,-5.549759,8.0,49.82746,24.043604,344.0,NaN,6.984,3.5,304.1,21 / 26,146035,2020-03-17 13:13:32:697
-2.585738,7.37893,-3.074155,8.0,49.82746,24.043604,344.0,NaN,6.984,3.5,304.1,21 / 26,146535,2020-03-17 13:13:33:197
15.351622,9.749189,-5.755661,8.0,49.82746,24.043604,344.0,NaN,6.984,3.5,304.1,20 / 27,147036,2020-03-17 13:13:33:698
18.186356,17.166426,7.07726,8.0,49.82746,24.043604,344.0,NaN,6.984,3.5,304.1,20 / 27,147535,2020-03-17 13:13:34:197
2.647987,11.386824,-2.944868,8.0,49.82746,24.043604,344.0,NaN,6.984,3.5,304.1,21 / 27,148036,2020-03-17 13:13:34:698
3.8403,-12.545617,0.708684,8.0,49.82746,24.043604,344.0,NaN,6.984,3.5,304.1,21 / 27,148535,2020-03-17 13:13:35:197
5.861006,10.903194,5.870583,8.0,49.82746,24.043604,344.0,NaN,6.984,3.5,304.1,21 / 27,149035,2020-03-17 13:13:35:697
25.512613,28.898014,0.483629,8.0,49.82746,24.043604,344.0,NaN,6.984,3.5,304.1,21 / 27,149535,2020-03-17 13:13:36:197
-0.871489,-12.569559,-4.91769,8.0,49.82746,24.043604,344.0,NaN,6.984,3.5,304.1,22 / 26,150035,2020-03-17 13:13:36:697
16.74026,25.3115,7.201759,8.0,49.82746,24.043604,344.0,NaN,6.984,3.5,304.1,22 / 26,150535,2020-03-17 13:13:37:197
2.006341,14.216769,0.402226,8.0,49.82746,24.043604,344.0,NaN,6.984,3.5,304.1,20 / 27,151035,2020-03-17 13:13:37:697
-1.182736,-12.061988,-1.278504,8.0,49.82746,24.043604,344.0,NaN,6.984,3.5,304.1,20 / 27,151535,2020-03-17 13:13:38:197
-1.671153,4.845865,18.47366,8.0,49.82746,24.043604,344.0,NaN,6.984,3.5,304.1,22 / 27,152035,2020-03-17 13:13:38:697
-6.315904,24.693796,-3.74932,8.0,49.82746,24.043604,344.0,NaN,6.984,3.5,304.1,22 / 27,152535,2020-03-17 13:13:39:197
-1.628057,16.903065,4.625598,8.0,49.82746,24.043604,344.0,NaN,6.984,3.5,304.1,22 / 27,153035,2020-03-17 13:13:39:697
-4.529829,-5.310339,-2.293645,8.0,49.82746,24.043604,344.0,NaN,6.984,3.5,304.1,22 / 27,153535,2020-03-17 13:13:40:197
-7.867347,14.9063,7.206548,8.0,49.82746,24.043604,344.0,NaN,6.984,3.5,304.1,22 / 27,154035,2020-03-17 13:13:40:697
5.027824,4.266468,-7.422025,8.0,49.82746,24.043604,344.0,NaN,6.984,3.5,304.1,22 / 27,154535,2020-03-17 13:13:41:197
-3.816357,7.038953,5.588067,8.0,49.82746,24.043604,344.0,NaN,6.984,3.5,304.1,21 / 27,155035,2020-03-17 13:13:41:697
18.047491,8.178593,3.490746,8.0,49.82746,24.043604,344.0,NaN,6.984,3.5,304.1,21 / 27,155536,2020-03-17 13:13:42:198
22.486341,15.614984,14.264654,8.0,49.82746,24.043604,344.0,NaN,6.984,3.5,304.1,21 / 27,156035,2020-03-17 13:13:42:697
-5.061342,5.137957,2.408567,8.0,49.82746,24.043604,344.0,NaN,6.984,3.5,304.1,21 / 27,156535,2020-03-17 13:13:43:197
4.984728,-15.547946,-6.943185,8.0,49.82746,24.043604,344.0,NaN,6.984,3.5,304.1,21 / 27,157035,2020-03-17 13:13:43:697
0.641646,13.584701,14.389153,8.0,49.82746,24.043604,344.0,NaN,6.984,3.5,304.1,21 / 27,157535,2020-03-17 13:13:44:197
-4.46758,6.83784,1.197101,8.0,49.82746,24.043604,344.0,NaN,6.984,3.5,304.1,21 / 27,158035,2020-03-17 13:13:44:697
3.222596,-9.485827,-3.730166,8.0,49.82746,24.043604,344.0,NaN,6.984,3.5,304.1,21 / 27,158536,2020-03-17 13:13:45:198
13.541605,27.916391,8.633492,8.0,49.82746,24.043604,344.0,NaN,6.984,3.5,304.1,20 / 27,159035,2020-03-17 13:13:45:697
1.762132,16.395493,-0.761356,8.0,49.82746,24.043604,344.0,NaN,6.984,3.5,304.1,20 / 27,159535,2020-03-17 13:13:46:197
4.965575,-8.662222,-7.010222,8.0,49.82746,24.043604,344.0,NaN,6.984,3.5,304.1,22 / 27,160035,2020-03-17 13:13:46:697
1.063026,6.981492,6.751649,8.0,49.82746,24.043604,344.0,NaN,6.984,3.5,304.1,22 / 27,160535,2020-03-17 13:13:47:197
8.025364,17.108965,4.146757,8.0,49.82746,24.043604,344.0,NaN,6.984,3.5,304.1,22 / 27,161035,2020-03-17 13:13:47:697
10.419566,15.830462,4.089296,8.0,49.82746,24.043604,344.0,NaN,6.984,3.5,304.1,22 / 27,161535,2020-03-17 13:13:48:197
1.173159,9.629479,5.118803,8.0,49.82746,24.043604,344.0,NaN,6.984,3.5,304.1,21 / 27,162035,2020-03-17 13:13:48:697
14.944607,30.35369,3.730166,8.0,49.82746,24.043604,344.0,NaN,6.984,3.5,304.1,21 / 27,162536,2020-03-17 13:13:49:198
3.409343,0.004788,-2.724601,8.0,49.82746,24.043604,344.0,NaN,6.984,3.5,304.1,22 / 27,163036,2020-03-17 13:13:49:698
-4.089296,6.359,3.648764,8.0,49.82746,24.043604,344.0,NaN,6.984,3.5,304.1,22 / 27,163535,2020-03-17 13:13:50:197
13.575124,3.557784,-0.785298,8.0,49.82746,24.043604,344.0,NaN,6.984,3.5,304.1,22 / 27,164035,2020-03-17 13:13:50:697
12.488156,28.083986,9.332599,8.0,49.82746,24.043604,344.0,NaN,6.984,3.5,304.1,22 / 27,164535,2020-03-17 13:13:51:197
-6.775591,10.199299,2.552219,8.0,49.82746,24.043604,344.0,NaN,6.984,3.5,304.1,22 / 27,165036,2020-03-17 13:13:51:698
9.763555,-15.394717,2.911349,8.0,49.82746,24.043604,344.0,NaN,6.984,3.5,304.1,22 / 27,165535,2020-03-17 13:13:52:197
4.616021,15.016433,-1.484405,8.0,49.82746,24.043604,344.0,NaN,6.984,3.5,304.1,24 / 27,166035,2020-03-17 13:13:52:697
-0.536301,7.623139,3.576938,8.0,49.82746,24.043604,344.0,NaN,6.984,3.5,304.1,24 / 27,166535,2020-03-17 13:13:53:197
9.179369,-0.100556,-4.304775,8.0,49.82746,24.043604,344.0,NaN,6.984,3.5,304.1,24 / 27,167036,2020-03-17 13:13:53:698
18.334797,23.353043,0.579397,8.0,49.82746,24.043604,344.0,NaN,6.984,3.5,304.1,24 / 27,167536,2020-03-17 13:13:54:198
-5.080496,8.499416,1.177947,8.0,49.82746,24.043604,344.0,NaN,6.984,3.5,304.1,23 / 27,168035,2020-03-17 13:13:54:697
7.623139,-11.717223,0.80924,8.0,49.82746,24.043604,344.0,NaN,6.984,3.5,304.1,23 / 27,168535,2020-03-17 13:13:55:197
-1.704672,7.632715,3.193865,8.0,49.82746,24.043604,344.0,NaN,6.984,3.5,304.1,23 / 27,169035,2020-03-17 13:13:55:697
23.252487,27.466282,9.457097,8.0,49.82746,24.043604,344.0,NaN,6.984,3.5,304.1,23 / 27,169535,2020-03-17 13:13:56:197
6.651093,0.794875,-2.54743,8.0,49.82746,24.043604,344.0,NaN,6.984,3.5,304.1,22 / 26,170035,2020-03-17 13:13:56:697
-4.601655,5.736508,0.387861,8.0,49.82746,24.043604,344.0,NaN,6.984,3.5,304.1,22 / 26,170535,2020-03-17 13:13:57:197
-2.686294,13.862428,2.298434,8.0,49.82746,24.043604,344.0,NaN,6.984,3.5,304.1,22 / 27,171036,2020-03-17 13:13:57:698
3.457227,-12.210428,-0.483629,8.0,49.82746,24.043604,344.0,NaN,6.984,3.5,304.1,22 / 27,171535,2020-03-17 13:13:58:197
1.225831,10.840945,8.595184,8.0,49.82746,24.043604,344.0,NaN,6.984,3.5,304.1,23 / 27,172035,2020-03-17 13:13:58:697
25.206156,38.187515,3.792416,8.0,49.82746,24.043604,344.0,NaN,6.984,3.5,304.1,23 / 27,172535,2020-03-17 13:13:59:197
7.129933,3.825935,2.355895,8.0,49.82746,24.043604,344.0,NaN,6.984,3.5,304.1,21 / 26,173035,2020-03-17 13:13:59:697
-3.44765,5.741296,3.198654,8.0,49.82746,24.043604,344.0,NaN,6.984,3.5,304.1,21 / 26,173535,2020-03-17 13:14:00:197
1.302446,-11.329363,-2.767697,8.0,49.82746,24.043604,344.0,NaN,6.984,3.5,304.1,23 / 27,174036,2020-03-17 13:14:00:698
5.511452,26.848577,3.548207,8.0,49.82746,24.043604,344.0,NaN,6.984,3.5,304.1,23 / 27,174535,2020-03-17 13:14:01:197
-0.296881,7.752425,-1.40779,8.0,49.82746,24.043604,344.0,NaN,6.984,3.5,304.1,23 / 27,175035,2020-03-17 13:14:01:697
6.272809,18.885464,-7.929596,8.0,49.82746,24.043604,344.0,NaN,6.984,3.5,304.1,23 / 27,175536,2020-03-17 13:14:02:198
13.862428,11.401189,1.412579,8.0,49.82746,24.043604,344.0,NaN,6.984,3.5,304.1,20 / 26,176035,2020-03-17 13:14:02:697
-5.430049,4.831499,1.426944,8.0,49.82746,24.043604,344.0,NaN,6.984,3.5,304.1,20 / 26,176535,2020-03-17 13:14:03:197
0.426168,-12.880805,-0.09098,8.0,49.82746,24.043604,344.0,NaN,6.984,3.5,304.1,21 / 27,177036,2020-03-17 13:14:03:698
7.666234,32.848446,8.207323,8.0,49.82746,24.043604,344.0,NaN,6.984,3.5,304.1,21 / 27,177535,2020-03-17 13:14:04:197
-0.067038,17.990032,0.196325,8.0,49.82746,24.043604,344.0,NaN,6.984,3.5,304.1,23 / 27,178035,2020-03-17 13:14:04:697
5.827487,-6.019023,-3.098097,8.0,49.82746,24.043604,344.0,NaN,6.984,3.5,304.1,23 / 27,178536,2020-03-17 13:14:05:198
-0.09098,8.839393,3.155558,8.0,49.82746,24.043604,344.0,NaN,6.984,3.5,304.1,23 / 27,179035,2020-03-17 13:14:05:697
-5.975927,7.053318,-2.054225,8.0,49.82746,24.043604,344.0,NaN,6.984,3.5,304.1,23 / 27,179535,2020-03-17 13:14:06:197
7.402872,-12.74673,-1.61848,8.0,49.82746,24.043604,344.0,NaN,6.984,3.5,304.1,20 / 27,180036,2020-03-17 13:14:06:698
4.084508,22.141577,9.428367,8.0,49.82746,24.043604,344.0,NaN,6.984,3.5,304.1,20 / 27,180535,2020-03-17 13:14:07:197
5.971139,24.55972,-0.469264,8.0,49.82746,24.043604,344.0,NaN,6.984,3.5,304.1,20 / 27,181035,2020-03-17 13:14:07:697
4.443639,-6.761225,1.623269,8.0,49.82746,24.043604,344.0,NaN,6.984,3.5,304.1,20 / 27,181535,2020-03-17 13:14:08:197
-0.172383,11.200075,2.8491,8.0,49.82746,24.043604,344.0,NaN,6.984,3.5,304.1,22 / 27,182035,2020-03-17 13:14:08:697
5.904102,17.381905,-3.490746,8.0,49.82746,24.043604,344.0,NaN,6.984,3.5,304.1,22 / 27,182535,2020-03-17 13:14:09:197
8.968679,13.268666,-0.172383,8.0,49.82746,24.043604,344.0,NaN,6.984,3.5,304.1,22 / 26,183035,2020-03-17 13:14:09:697
2.322376,10.82658,8.90643,8.0,49.82746,24.043604,344.0,NaN,6.984,3.5,304.1,22 / 26,183535,2020-03-17 13:14:10:197
12.914324,33.523613,9.65821,8.0,49.82746,24.043604,344.0,NaN,6.984,3.5,304.1,21 / 27,184035,2020-03-17 13:14:10:697
5.564125,0.646435,-3.974375,8.0,49.82746,24.043604,344.0,NaN,6.984,3.5,304.1,21 / 27,184535,2020-03-17 13:14:11:197
-1.37906,7.872135,-1.264138,8.0,49.82746,24.043604,344.0,NaN,6.984,3.5,304.1,20 / 26,185036,2020-03-17 13:14:11:698
15.586253,13.239936,-3.031059,8.0,49.82746,24.043604,344.0,NaN,6.984,3.5,304.1,20 / 26,185535,2020-03-17 13:14:12:197
12.090718,17.104177,5.506664,8.0,49.82746,24.043604,344.0,NaN,6.984,3.5,304.1,21 / 27,186035,2020-03-17 13:14:12:697
-5.353435,7.987057,-1.086968,8.0,49.82746,24.043604,344.0,NaN,6.984,3.5,304.1,21 / 27,186535,2020-03-17 13:14:13:197
6.488287,-15.35641,1.862689,8.0,49.827396,24.042019,340.0,NaN,8.424,3.5,225.5,21 / 27,187035,2020-03-17 13:14:13:697
3.998317,11.808203,6.129156,8.0,49.827396,24.042019,340.0,NaN,8.424,3.5,225.5,21 / 27,187535,2020-03-17 13:14:14:197
-4.711789,4.122815,-0.186748,8.0,49.827396,24.042019,340.0,NaN,8.424,3.5,225.5,22 / 27,188036,2020-03-17 13:14:14:698
-0.565032,-11.602302,-2.5187,8.0,49.827396,24.042019,340.0,NaN,8.424,3.5,225.5,22 / 27,188535,2020-03-17 13:14:15:197
10.266336,28.390444,5.243302,8.0,49.827396,24.042019,340.0,NaN,8.424,3.5,225.5,24 / 27,189035,2020-03-17 13:14:15:697
1.599327,20.910957,8.034941,8.0,49.827396,24.042019,340.0,NaN,8.424,3.5,225.5,24 / 27,189535,2020-03-17 13:14:16:197
4.012682,-7.852981,-5.094861,8.0,49.827396,24.042019,340.0,NaN,8.424,3.5,225.5,22 / 27,190035,2020-03-17 13:14:16:697
-1.431733,6.081272,-0.378284,8.0,49.827396,24.042019,340.0,NaN,8.424,3.5,225.5,22 / 27,190535,2020-03-17 13:14:17:197
11.7268,9.279925,3.801993,8.0,49.827396,24.042019,340.0,NaN,8.424,3.5,225.5,22 / 27,191036,2020-03-17 13:14:17:698
13.656527,17.606958,4.01747,8.0,49.827396,24.042019,340.0,NaN,8.424,3.5,225.5,22 / 27,191535,2020-03-17 13:14:18:197
-1.426944,7.675811,5.693412,8.0,49.827396,24.042019,340.0,NaN,8.424,3.5,225.5,23 / 27,192036,2020-03-17 13:14:18:698
16.577452,31.96738,2.528277,8.0,49.827396,24.042019,340.0,NaN,8.424,3.5,225.5,23 / 27,192536,2020-03-17 13:14:19:198
7.469909,9.069236,-3.040636,8.0,49.827396,24.042019,340.0,NaN,8.424,3.5,225.5,22 / 27,193035,2020-03-17 13:14:19:697
-4.481945,4.817134,-3.074155,8.0,49.827396,24.042019,340.0,NaN,8.424,3.5,225.5,22 / 27,193535,2020-03-17 13:14:20:197
2.566584,-14.130578,-0.354342,8.0,49.827396,24.042019,340.0,NaN,8.424,3.5,225.5,22 / 27,194036,2020-03-17 13:14:20:698
3.620033,23.54458,9.753978,8.0,49.827396,24.042019,340.0,NaN,8.424,3.5,225.5,22 / 27,194535,2020-03-17 13:14:21:197
3.557784,20.628443,2.868254,8.0,49.827396,24.042019,340.0,NaN,8.424,3.5,225.5,23 / 27,195035,2020-03-17 13:14:21:697
0.177171,-7.862558,-3.236961,8.0,49.827396,24.042019,340.0,NaN,8.424,3.5,225.5,23 / 27,195536,2020-03-17 13:14:22:198
-17.022774,9.11712,9.830592,8.0,49.827396,24.042019,340.0,NaN,8.424,3.5,225.5,22 / 26,196035,2020-03-17 13:14:22:697
-2.020706,2.868254,-5.056554,8.0,49.827396,24.042019,340.0,NaN,8.424,3.5,225.5,22 / 26,196535,2020-03-17 13:14:23:197
3.945645,12.962208,0.014365,8.0,49.827396,24.042019,340.0,NaN,8.424,3.5,225.5,23 / 27,197036,2020-03-17 13:14:23:698
-8.456321,0.794875,-4.687847,8.0,49.827396,24.042019,340.0,NaN,8.424,3.5,225.5,23 / 27,197535,2020-03-17 13:14:24:197
-13.953407,25.07208,0.407014,8.0,49.827396,24.042019,340.0,NaN,8.424,3.5,225.5,21 / 26,198035,2020-03-17 13:14:24:697
4.908114,13.081918,5.626374,8.0,49.827396,24.042019,340.0,NaN,8.424,3.5,225.5,21 / 26,198535,2020-03-17 13:14:25:197
-6.689399,-0.881066,-9.749189,8.0,49.827396,24.042019,340.0,NaN,8.424,3.5,225.5,23 / 27,199035,2020-03-17 13:14:25:697
5.741296,-1.656788,-4.592078,8.0,49.827396,24.042019,340.0,NaN,8.424,3.5,225.5,23 / 27,199536,2020-03-17 13:14:26:198
2.169147,-7.072471,-3.667917,8.0,49.827396,24.042019,340.0,NaN,8.424,3.5,225.5,22 / 27,200035,2020-03-17 13:14:26:697
-4.49631,4.505888,5.784392,8.0,49.827396,24.042019,340.0,NaN,8.424,3.5,225.5,22 / 27,200535,2020-03-17 13:14:27:197
8.087613,12.957419,12.287044,8.0,49.827396,24.042019,340.0,NaN,8.424,3.5,225.5,20 / 26,201036,2020-03-17 13:14:27:698
15.849615,15.466543,16.170439,8.0,49.827396,24.042019,340.0,NaN,8.424,3.5,225.5,20 / 26,201535,2020-03-17 13:14:28:197
-1.034295,7.436391,1.613692,8.0,49.827396,24.042019,340.0,NaN,8.424,3.5,225.5,20 / 27,202035,2020-03-17 13:14:28:697
4.1707,-10.357317,0.23942,8.0,49.827396,24.042019,340.0,NaN,8.424,3.5,225.5,20 / 27,202535,2020-03-17 13:14:29:197
5.214572,9.586384,8.207323,8.0,49.827396,24.042019,340.0,NaN,8.424,3.5,225.5,23 / 27,203035,2020-03-17 13:14:29:697
19.359514,30.10948,7.508217,8.0,49.827396,24.042019,340.0,NaN,8.424,3.5,225.5,23 / 27,203535,2020-03-17 13:14:30:197
1.335965,-12.53604,-2.762909,8.0,49.827396,24.042019,340.0,NaN,8.424,3.5,225.5,23 / 27,204035,2020-03-17 13:14:30:697
4.946421,22.519861,8.111555,8.0,49.827396,24.042019,340.0,NaN,8.424,3.5,225.5,23 / 27,204536,2020-03-17 13:14:31:198
3.002329,21.95004,3.332729,8.0,49.827396,24.042019,340.0,NaN,8.424,3.5,225.5,21 / 27,205036,2020-03-17 13:14:31:698
1.690306,-5.549759,-4.161122,8.0,49.827396,24.042019,340.0,NaN,8.424,3.5,225.5,21 / 27,205535,2020-03-17 13:14:32:197
-0.933739,7.369353,1.010353,8.0,49.827396,24.042019,340.0,NaN,8.424,3.5,225.5,18 / 26,206035,2020-03-17 13:14:32:697
11.243171,10.213664,-1.278504,8.0,49.827396,24.042019,340.0,NaN,8.424,3.5,225.5,18 / 26,206535,2020-03-17 13:14:33:197
11.286267,20.748152,5.88016,8.0,49.827396,24.042019,340.0,NaN,8.424,3.5,225.5,21 / 26,207036,2020-03-17 13:14:33:698
-0.02873,13.953407,1.762132,8.0,49.827396,24.042019,340.0,NaN,8.424,3.5,225.5,21 / 26,207535,2020-03-17 13:14:34:197
14.867992,20.135237,-0.043096,8.0,49.827396,24.042019,340.0,NaN,8.424,3.5,225.5,21 / 27,208035,2020-03-17 13:14:34:697
0.790087,-3.552995,4.946421,8.0,49.827396,24.042019,340.0,NaN,8.424,3.5,225.5,21 / 27,208536,2020-03-17 13:14:35:198
-4.572925,5.784392,-2.628833,8.0,49.827396,24.042019,340.0,NaN,8.424,3.5,225.5,21 / 27,209035,2020-03-17 13:14:35:697
1.182736,-8.973468,-0.3304,8.0,49.827396,24.042019,340.0,NaN,8.424,3.5,225.5,21 / 27,209535,2020-03-17 13:14:36:197
7.61835,29.735985,8.863335,8.0,49.827396,24.042019,340.0,NaN,8.424,3.5,225.5,21 / 27,210036,2020-03-17 13:14:36:698
-1.479617,16.960526,11.415554,8.0,49.827396,24.042019,340.0,NaN,8.424,3.5,225.5,21 / 27,210535,2020-03-17 13:14:37:197
-0.727837,-6.574477,-4.34787,8.0,49.827396,24.042019,340.0,NaN,8.424,3.5,225.5,22 / 26,211035,2020-03-17 13:14:37:697
0.90022,8.078037,-0.995988,8.0,49.827396,24.042019,340.0,NaN,8.424,3.5,225.5,22 / 26,211535,2020-03-17 13:14:38:197
1.187524,16.43859,-12.3876,8.0,49.827396,24.042019,340.0,NaN,8.424,3.5,225.5,21 / 26,212035,2020-03-17 13:14:38:697
6.761226,-12.631808,0.02873,8.0,49.827396,24.042019,340.0,NaN,8.424,3.5,225.5,21 / 26,212535,2020-03-17 13:14:39:197
5.046977,10.807426,2.442086,8.0,49.827396,24.042019,340.0,NaN,8.424,3.5,225.5,21 / 26,213035,2020-03-17 13:14:39:697
23.022644,36.67438,-3.055001,8.0,49.827396,24.042019,340.0,NaN,8.424,3.5,225.5,21 / 26,213535,2020-03-17 13:14:40:197
3.385401,3.433285,-5.209783,8.0,49.827396,24.042019,340.0,NaN,8.424,3.5,225.5,20 / 27,214036,2020-03-17 13:14:40:698
-6.028599,4.582502,0.675165,8.0,49.827396,24.042019,340.0,NaN,8.424,3.5,225.5,20 / 27,214535,2020-03-17 13:14:41:197
-0.670376,-14.231135,0.603339,8.0,49.827396,24.042019,340.0,NaN,8.424,3.5,225.5,21 / 27,215035,2020-03-17 13:14:41:697
1.44131,24.650702,2.360683,8.0,49.827396,24.042019,340.0,NaN,8.424,3.5,225.5,21 / 27,215535,2020-03-17 13:14:42:197
13.752295,25.263617,9.184157,8.0,49.827396,24.042019,340.0,NaN,8.424,3.5,225.5,23 / 27,216035,2020-03-17 13:14:42:697
10.16578,-1.881842,-1.249773,8.0,49.827396,24.042019,340.0,NaN,8.424,3.5,225.5,23 / 27,216535,2020-03-17 13:14:43:197
20.020315,23.381771,4.970363,8.0,49.827396,24.042019,340.0,NaN,8.424,3.5,225.5,23 / 27,217035,2020-03-17 13:14:43:697
-3.859453,10.668563,2.734178,8.0,49.827396,24.042019,340.0,NaN,8.424,3.5,225.5,23 / 27,217536,2020-03-17 13:14:44:198
6.359,-11.252748,-4.323928,8.0,49.827396,24.042019,340.0,NaN,8.424,3.5,225.5,22 / 27,218035,2020-03-17 13:14:44:697
0.857124,8.643068,6.368577,8.0,49.827396,24.042019,340.0,NaN,8.424,3.5,225.5,22 / 27,218535,2020-03-17 13:14:45:197
20.278889,34.466927,1.297657,8.0,49.827396,24.042019,340.0,NaN,8.424,3.5,225.5,21 / 27,219036,2020-03-17 13:14:45:698
2.355895,-0.833182,-3.672705,8.0,49.827396,24.042019,340.0,NaN,8.424,3.5,225.5,21 / 27,219535,2020-03-17 13:14:46:197
-4.58729,4.242526,0.282516,8.0,49.827396,24.042019,340.0,NaN,8.424,3.5,225.5,23 / 27,220035,2020-03-17 13:14:46:697
10.893618,-0.622492,0.938527,8.0,49.827396,24.042019,340.0,NaN,8.424,3.5,225.5,23 / 27,220535,2020-03-17 13:14:47:197
3.754108,-2.633622,-3.102885,8.0,49.827396,24.042019,340.0,NaN,8.424,3.5,225.5,23 / 27,221035,2020-03-17 13:14:47:697
-3.184288,5.755661,2.217031,8.0,49.827396,24.042019,340.0,NaN,8.424,3.5,225.5,23 / 27,221536,2020-03-17 13:14:48:198
11.209652,15.452178,-8.671799,8.0,49.827396,24.042019,340.0,NaN,8.424,3.5,225.5,21 / 27,222035,2020-03-17 13:14:48:697
15.883134,14.887146,2.054225,8.0,49.827396,24.042019,340.0,NaN,8.424,3.5,225.5,21 / 27,222535,2020-03-17 13:14:49:197
-2.619257,7.910443,0.967258,8.0,49.827396,24.042019,340.0,NaN,8.424,3.5,225.5,22 / 27,223036,2020-03-17 13:14:49:698
4.209007,-14.887146,-2.375048,8.0,49.827396,24.042019,340.0,NaN,8.424,3.5,225.5,22 / 27,223535,2020-03-17 13:14:50:197
5.683835,24.349031,6.105214,8.0,49.827396,24.042019,340.0,NaN,8.424,3.5,225.5,24 / 26,224035,2020-03-17 13:14:50:697
5.588067,23.72654,5.93762,8.0,49.827396,24.042019,340.0,NaN,8.424,3.5,225.5,24 / 26,224535,2020-03-17 13:14:51:197
-1.04866,-7.953538,-5.798756,8.0,49.827396,24.042019,340.0,NaN,8.424,3.5,225.5,22 / 27,225036,2020-03-17 13:14:51:698
-2.413355,23.539791,2.686294,8.0,49.827396,24.042019,340.0,NaN,8.424,3.5,225.5,22 / 27,225536,2020-03-17 13:14:52:198
3.576938,17.525557,11.401189,8.0,49.827396,24.042019,340.0,NaN,8.424,3.5,225.5,23 / 27,226035,2020-03-17 13:14:52:697
4.343082,-4.405331,-6.248866,8.0,49.827396,24.042019,340.0,NaN,8.424,3.5,225.5,23 / 27,226535,2020-03-17 13:14:53:197
-3.462016,6.21056,3.481169,8.0,49.827396,24.042019,340.0,NaN,8.424,3.5,225.5,23 / 27,227035,2020-03-17 13:14:53:697
14.930242,19.354727,-1.513135,8.0,49.827396,24.042019,340.0,NaN,8.424,3.5,225.5,23 / 27,227536,2020-03-17 13:14:54:198
19.258959,16.409859,0.196325,8.0,49.827396,24.042019,340.0,NaN,8.424,3.5,225.5,24 / 27,228035,2020-03-17 13:14:54:697
-3.86903,7.393295,-1.154005,8.0,49.827396,24.042019,340.0,NaN,8.424,3.5,225.5,24 / 27,228535,2020-03-17 13:14:55:197
8.729259,-11.93749,-1.436521,8.0,49.827396,24.042019,340.0,NaN,8.424,3.5,225.5,24 / 27,229036,2020-03-17 13:14:55:698
6.435614,6.306328,0.354342,8.0,49.827396,24.042019,340.0,NaN,8.424,3.5,225.5,24 / 27,229535,2020-03-17 13:14:56:197
-3.371036,6.301539,-3.29921,8.0,49.827396,24.042019,340.0,NaN,8.424,3.5,225.5,24 / 27,230035,2020-03-17 13:14:56:697
1.407791,-13.709199,-5.363012,8.0,49.827396,24.042019,340.0,NaN,8.424,3.5,225.5,24 / 27,230536,2020-03-17 13:14:57:198
3.093309,10.510546,-3.189077,8.0,49.827396,24.042019,340.0,NaN,8.424,3.5,225.5,23 / 27,231035,2020-03-17 13:14:57:697
33.403904,36.870705,-2.303222,8.0,49.827396,24.042019,340.0,NaN,8.424,3.5,225.5,23 / 27,231535,2020-03-17 13:14:58:197
8.686164,6.301539,1.297657,8.0,49.827396,24.042019,340.0,NaN,8.424,3.5,225.5,23 / 26,232036,2020-03-17 13:14:58:698
-2.576161,7.900866,-3.524265,8.0,49.827396,24.042019,340.0,NaN,8.424,3.5,225.5,23 / 26,232535,2020-03-17 13:14:59:197
6.196194,-10.965444,-0.531513,8.0,49.827396,24.042019,340.0,NaN,8.424,3.5,225.5,24 / 27,233035,2020-03-17 13:14:59:697
5.157111,4.501099,2.327164,8.0,49.827396,24.042019,340.0,NaN,8.424,3.5,225.5,24 / 27,233535,2020-03-17 13:15:00:197
-2.437297,8.169016,-0.081403,8.0,49.827396,24.042019,340.0,NaN,8.424,3.5,225.5,23 / 27,234036,2020-03-17 13:15:00:698
4.908114,-16.136919,-1.029507,8.0,49.827396,24.042019,340.0,NaN,8.424,3.5,225.5,23 / 27,234535,2020-03-17 13:15:01:197
1.264139,9.193734,2.001553,8.0,49.826424,24.041502,326.0,NaN,6.084,3.5,218.5,21 / 27,235035,2020-03-17 13:15:01:697
13.809755,29.022512,12.291832,8.0,49.826424,24.041502,326.0,NaN,6.084,3.5,218.5,21 / 27,235535,2020-03-17 13:15:02:197
4.874595,1.805228,-3.691859,8.0,49.826424,24.041502,326.0,NaN,6.084,3.5,218.5,24 / 26,236035,2020-03-17 13:15:02:697
-4.76925,4.237737,2.863465,8.0,49.826424,24.041502,326.0,NaN,6.084,3.5,218.5,24 / 26,236535,2020-03-17 13:15:03:197
0.272939,-10.31901,-1.958457,8.0,49.826424,24.041502,326.0,NaN,6.084,3.5,218.5,22 / 27,237036,2020-03-17 13:15:03:698
8.968679,29.946674,10.97502,8.0,49.826424,24.041502,326.0,NaN,6.084,3.5,218.5,22 / 27,237535,2020-03-17 13:15:04:197
-7.010222,4.750097,0.407014,8.0,49.826424,24.041502,326.0,NaN,6.084,3.5,218.5,21 / 27,238035,2020-03-17 13:15:04:697
4.386178,1.675941,1.565808,8.0,49.826424,24.041502,326.0,NaN,6.084,3.5,218.5,21 / 27,238536,2020-03-17 13:15:05:198
11.252748,7.795521,2.70066,8.0,49.826424,24.041502,326.0,NaN,6.084,3.5,218.5,23 / 27,239035,2020-03-17 13:15:05:697
-3.471592,7.943961,-3.117251,8.0,49.826424,24.041502,326.0,NaN,6.084,3.5,218.5,23 / 27,239535,2020-03-17 13:15:06:197
-1.853112,-16.658855,-13.187263,8.0,49.826424,24.041502,326.0,NaN,6.084,3.5,218.5,21 / 27,240036,2020-03-17 13:15:06:698
-2.269703,18.387468,9.816227,8.0,49.826424,24.041502,326.0,NaN,6.084,3.5,218.5,21 / 27,240535,2020-03-17 13:15:07:197
11.176133,32.383972,-1.072602,8.0,49.826424,24.041502,326.0,NaN,6.084,3.5,218.5,23 / 27,241035,2020-03-17 13:15:07:697
2.60968,2.322376,-5.051765,8.0,49.826424,24.041502,326.0,NaN,6.084,3.5,218.5,23 / 27,241535,2020-03-17 13:15:08:197
-1.896208,7.824251,1.44131,8.0,49.826424,24.041502,326.0,NaN,6.084,3.5,218.5,23 / 27,242035,2020-03-17 13:15:08:697
4.668694,-4.568136,-3.026271,8.0,49.826424,24.041502,326.0,NaN,6.084,3.5,218.5,23 / 27,242536,2020-03-17 13:15:09:198
2.097321,-5.453991,-1.656788,8.0,49.826424,24.041502,326.0,NaN,6.084,3.5,218.5,23 / 27,243035,2020-03-17 13:15:09:697
-2.303222,7.019799,5.286398,8.0,49.826424,24.041502,326.0,NaN,6.084,3.5,218.5,23 / 27,243535,2020-03-17 13:15:10:197
15.32768,3.96001,-4.941632,8.0,49.826424,24.041502,326.0,NaN,6.084,3.5,218.5,22 / 27,244036,2020-03-17 13:15:10:698
21.959618,20.398598,8.192958,8.0,49.826424,24.041502,326.0,NaN,6.084,3.5,218.5,22 / 27,244535,2020-03-17 13:15:11:197
-3.122039,8.973468,2.284068,8.0,49.826424,24.041502,326.0,NaN,6.084,3.5,218.5,23 / 27,245035,2020-03-17 13:15:11:697
4.424485,-13.268666,-4.654328,8.0,49.826424,24.041502,326.0,NaN,6.084,3.5,218.5,23 / 27,245536,2020-03-17 13:15:12:198
4.989517,12.47858,5.875371,8.0,49.826424,24.041502,326.0,NaN,6.084,3.5,218.5,21 / 27,246035,2020-03-17 13:15:12:697
9.390059,26.00582,8.020576,8.0,49.826424,24.041502,326.0,NaN,6.084,3.5,218.5,21 / 27,246535,2020-03-17 13:15:13:197
-2.480393,-7.881712,-8.499416,8.0,49.826424,24.041502,326.0,NaN,6.084,3.5,218.5,23 / 27,247036,2020-03-17 13:15:13:698
17.769766,32.77183,-4.869806,8.0,49.826424,24.041502,326.0,NaN,6.084,3.5,218.5,23 / 27,247535,2020-03-17 13:15:14:197
0.699107,18.066647,-4.702212,8.0,49.826424,24.041502,326.0,NaN,6.084,3.5,218.5,24 / 27,248036,2020-03-17 13:15:14:698
3.361459,-8.810662,-8.42759,8.0,49.826424,24.041502,326.0,NaN,6.084,3.5,218.5,24 / 27,248535,2020-03-17 13:15:15:197
-0.497994,9.500193,4.654328,8.0,49.826424,24.041502,326.0,NaN,6.084,3.5,218.5,24 / 27,249035,2020-03-17 13:15:15:697
12.229582,15.021221,-4.936844,8.0,49.826424,24.041502,326.0,NaN,6.084,3.5,218.5,24 / 27,249536,2020-03-17 13:15:16:198
13.747506,6.909666,-2.212242,8.0,49.826424,24.041502,326.0,NaN,6.084,3.5,218.5,24 / 26,250035,2020-03-17 13:15:16:697
1.182736,15.792154,3.251326,8.0,49.826424,24.041502,326.0,NaN,6.084,3.5,218.5,24 / 26,250536,2020-03-17 13:15:17:198
19.761742,23.683443,-4.367024,8.0,49.826424,24.041502,326.0,NaN,6.084,3.5,218.5,24 / 26,251035,2020-03-17 13:15:17:697
13.417107,2.911349,-4.34787,8.0,49.826424,24.041502,326.0,NaN,6.084,3.5,218.5,24 / 26,251536,2020-03-17 13:15:18:198
-0.076614,10.338163,2.293645,8.0,49.826424,24.041502,326.0,NaN,6.084,3.5,218.5,24 / 27,252035,2020-03-17 13:15:18:697
9.169792,-6.919243,-4.386177,8.0,49.826424,24.041502,326.0,NaN,6.084,3.5,218.5,24 / 27,252535,2020-03-17 13:15:19:197
13.28782,31.115046,8.192958,8.0,49.826424,24.041502,326.0,NaN,6.084,3.5,218.5,23 / 27,253035,2020-03-17 13:15:19:697
-5.48751,11.142614,0.191536,8.0,49.826424,24.041502,326.0,NaN,6.084,3.5,218.5,23 / 27,253535,2020-03-17 13:15:20:197
6.473922,-6.449979,-5.372588,8.0,49.826424,24.041502,326.0,NaN,6.084,3.5,218.5,23 / 27,254036,2020-03-17 13:15:20:698
0.320823,9.854534,13.115437,8.0,49.826424,24.041502,326.0,NaN,6.084,3.5,218.5,23 / 27,254535,2020-03-17 13:15:21:197
-4.103661,9.950302,6.713342,8.0,49.826424,24.041502,326.0,NaN,6.084,3.5,218.5,24 / 27,255035,2020-03-17 13:15:21:697
10.266336,-12.871228,-0.694318,8.0,49.826424,24.041502,326.0,NaN,6.084,3.5,218.5,24 / 27,255535,2020-03-17 13:15:22:197
5.090073,10.160992,3.007117,8.0,49.826424,24.041502,326.0,NaN,6.084,3.5,218.5,23 / 27,256035,2020-03-17 13:15:22:697
14.221559,30.62184,13.374011,8.0,49.826424,24.041502,326.0,NaN,6.084,3.5,218.5,23 / 27,256535,2020-03-17 13:15:23:197
1.417368,-3.136404,0.277727,8.0,49.826424,24.041502,326.0,NaN,6.084,3.5,218.5,22 / 27,257036,2020-03-17 13:15:23:698
-4.434061,5.042189,2.212242,8.0,49.826424,24.041502,326.0,NaN,6.084,3.5,218.5,22 / 27,257535,2020-03-17 13:15:24:197
2.681506,-10.127473,-4.515464,8.0,49.826424,24.041502,326.0,NaN,6.084,3.5,218.5,22 / 27,258035,2020-03-17 13:15:24:697
1.838747,28.323406,10.295067,8.0,49.826424,24.041502,326.0,NaN,6.084,3.5,218.5,22 / 27,258535,2020-03-17 13:15:25:197
-7.163451,5.530606,1.484405,8.0,49.826424,24.041502,326.0,NaN,6.084,3.5,218.5,23 / 27,259035,2020-03-17 13:15:25:697
10.491392,-1.144428,-0.014365,8.0,49.826424,24.041502,326.0,NaN,6.084,3.5,218.5,23 / 27,259535,2020-03-17 13:15:26:197
23.166296,34.12216,7.058107,8.0,49.826424,24.041502,326.0,NaN,6.084,3.5,218.5,21 / 27,260036,2020-03-17 13:15:26:698
-1.015141,14.561535,-1.412579,8.0,49.826424,24.041502,326.0,NaN,6.084,3.5,218.5,21 / 27,260535,2020-03-17 13:15:27:197
3.897761,-8.911219,-4.778826,8.0,49.826424,24.041502,326.0,NaN,6.084,3.5,218.5,21 / 27,261035,2020-03-17 13:15:27:697
-0.71826,7.225701,7.479486,8.0,49.826424,24.041502,326.0,NaN,6.084,3.5,218.5,21 / 27,261535,2020-03-17 13:15:28:197
16.361975,25.981876,0.009577,8.0,49.826424,24.041502,326.0,NaN,6.084,3.5,218.5,22 / 27,262035,2020-03-17 13:15:28:697
11.204864,13.211205,0.727837,8.0,49.826424,24.041502,326.0,NaN,6.084,3.5,218.5,22 / 27,262535,2020-03-17 13:15:29:197
10.175357,12.780249,4.821923,8.0,49.826424,24.041502,326.0,NaN,6.084,3.5,218.5,24 / 27,263035,2020-03-17 13:15:29:697
19.393034,35.33363,0.181959,8.0,49.826424,24.041502,326.0,NaN,6.084,3.5,218.5,24 / 27,263535,2020-03-17 13:15:30:197
1.575385,-3.615245,-3.62961,8.0,49.826424,24.041502,326.0,NaN,6.084,3.5,218.5,22 / 27,264036,2020-03-17 13:15:30:698
-4.61602,3.773262,-3.035848,8.0,49.826424,24.041502,326.0,NaN,6.084,3.5,218.5,22 / 27,264535,2020-03-17 13:15:31:197
2.044648,-5.204994,-2.322375,8.0,49.826424,24.041502,326.0,NaN,6.084,3.5,218.5,24 / 27,265035,2020-03-17 13:15:31:697
15.619772,33.47094,3.969586,8.0,49.826424,24.041502,326.0,NaN,6.084,3.5,218.5,24 / 27,265536,2020-03-17 13:15:32:198
1.44131,18.416199,9.811439,8.0,49.826424,24.041502,326.0,NaN,6.084,3.5,218.5,23 / 27,266035,2020-03-17 13:15:32:697
4.084508,-9.361329,-6.737283,8.0,49.826424,24.041502,326.0,NaN,6.084,3.5,218.5,23 / 27,266535,2020-03-17 13:15:33:197
-2.916138,6.866571,5.88016,8.0,49.826424,24.041502,326.0,NaN,6.084,3.5,218.5,21 / 27,267036,2020-03-17 13:15:33:698
-5.722142,8.987833,-1.163582,8.0,49.826424,24.041502,326.0,NaN,6.084,3.5,218.5,21 / 27,267535,2020-03-17 13:15:34:197
3.217807,-8.073248,-4.79798,8.0,49.826424,24.041502,326.0,NaN,6.084,3.5,218.5,24 / 27,268035,2020-03-17 13:15:34:697
-0.895431,8.767567,3.045425,8.0,49.826424,24.041502,326.0,NaN,6.084,3.5,218.5,24 / 27,268535,2020-03-17 13:15:35:197
27.26517,31.172506,0.301669,8.0,49.826424,24.041502,326.0,NaN,6.084,3.5,218.5,23 / 27,269035,2020-03-17 13:15:35:697
4.774039,-3.122039,0.282516,8.0,49.826424,24.041502,326.0,NaN,6.084,3.5,218.5,23 / 27,269535,2020-03-17 13:15:36:197
-2.657564,10.448297,-0.914585,8.0,49.826424,24.041502,326.0,NaN,6.084,3.5,218.5,24 / 27,270035,2020-03-17 13:15:36:697
25.866955,22.682667,1.149217,8.0,49.826424,24.041502,326.0,NaN,6.084,3.5,218.5,24 / 27,270535,2020-03-17 13:15:37:197
8.159439,-0.019154,2.652776,8.0,49.826424,24.041502,326.0,NaN,6.084,3.5,218.5,24 / 27,271035,2020-03-17 13:15:37:697
29.439104,31.028854,0.981623,8.0,49.826424,24.041502,326.0,NaN,6.084,3.5,218.5,24 / 27,271535,2020-03-17 13:15:38:197
-0.565032,11.851298,-2.451662,8.0,49.826424,24.041502,326.0,NaN,6.084,3.5,218.5,24 / 27,272035,2020-03-17 13:15:38:697
3.86903,-13.101071,-0.430956,8.0,49.826424,24.041502,326.0,NaN,6.084,3.5,218.5,24 / 27,272536,2020-03-17 13:15:39:198
0.11971,6.981492,3.174712,8.0,49.826424,24.041502,326.0,NaN,6.084,3.5,218.5,22 / 27,273035,2020-03-17 13:15:39:697
27.50459,35.793316,-6.062118,8.0,49.826424,24.041502,326.0,NaN,6.084,3.5,218.5,22 / 27,273535,2020-03-17 13:15:40:197
4.462792,3.361459,-0.23942,8.0,49.826424,24.041502,326.0,NaN,6.084,3.5,218.5,23 / 27,274035,2020-03-17 13:15:40:697
-4.309563,7.627927,2.681506,8.0,49.826424,24.041502,326.0,NaN,6.084,3.5,218.5,23 / 27,274535,2020-03-17 13:15:41:197
1.513135,-1.886631,-3.217807,8.0,49.826424,24.041502,326.0,NaN,6.084,3.5,218.5,24 / 27,275036,2020-03-17 13:15:41:698
19.55584,24.631548,-0.694318,8.0,49.826424,24.041502,326.0,NaN,6.084,3.5,218.5,24 / 27,275535,2020-03-17 13:15:42:197
-1.771709,11.348516,1.671153,8.0,49.826424,24.041502,326.0,NaN,6.084,3.5,218.5,24 / 27,276036,2020-03-17 13:15:42:698
27.451916,33.006466,-1.383848,8.0,49.826424,24.041502,326.0,NaN,6.084,3.5,218.5,24 / 27,276535,2020-03-17 13:15:43:197
0.158017,-4.601655,-0.344765,8.0,49.826424,24.041502,326.0,NaN,6.084,3.5,218.5,22 / 27,277035,2020-03-17 13:15:43:697
3.232172,16.725893,1.695095,8.0,49.826424,24.041502,326.0,NaN,6.084,3.5,218.5,22 / 27,277536,2020-03-17 13:15:44:198
1.94888,11.410766,-1.374272,8.0,49.826424,24.041502,326.0,NaN,6.084,3.5,218.5,23 / 27,278035,2020-03-17 13:15:44:697
-0.684742,-2.839523,-0.565032,8.0,49.826424,24.041502,326.0,NaN,6.084,3.5,218.5,23 / 27,278535,2020-03-17 13:15:45:197
2.121263,7.742849,0.617704,8.0,49.826424,24.041502,326.0,NaN,6.084,3.5,218.5,24 / 27,279036,2020-03-17 13:15:45:698
0.292093,-4.070143,-1.249773,8.0,49.826424,24.041502,326.0,NaN,6.084,3.5,218.5,24 / 27,279535,2020-03-17 13:15:46:197
7.311892,6.191406,-1.460463,8.0,49.826424,24.041502,326.0,NaN,6.084,3.5,218.5,23 / 27,280035,2020-03-17 13:15:46:697
-5.166687,5.679047,-4.314351,8.0,49.826424,24.041502,326.0,NaN,6.084,3.5,218.5,23 / 27,280536,2020-03-17 13:15:47:198
30.099903,31.742327,-4.529829,8.0,49.826424,24.041502,326.0,NaN,6.084,3.5,218.5,22 / 27,281035,2020-03-17 13:15:47:697
10.912771,18.176779,-3.667917,8.0,49.826424,24.041502,326.0,NaN,6.084,3.5,218.5,22 / 27,281536,2020-03-17 13:15:48:198
8.279149,19.632454,-3.514688,8.0,49.826424,24.041502,326.0,NaN,6.084,3.5,218.5,22 / 27,282035,2020-03-17 13:15:48:697
2.499547,1.623269,-6.430825,8.0,49.826424,24.041502,326.0,NaN,6.084,3.5,218.5,22 / 27,282535,2020-03-17 13:15:49:197
0.440533,-2.087744,-3.667917,8.0,49.825695,24.039944,326.0,NaN,5.292,3.0,224.7,23 / 27,283036,2020-03-17 13:15:49:698
-3.184288,13.268666,6.464345,8.0,49.825695,24.039944,326.0,NaN,5.292,3.0,224.7,23 / 27,283535,2020-03-17 13:15:50:197
1.015142,9.916783,8.322245,8.0,49.825695,24.039944,326.0,NaN,5.292,3.0,224.7,23 / 27,284035,2020-03-17 13:15:50:697
2.365471,-16.97968,-2.63841,8.0,49.825695,24.039944,326.0,NaN,5.292,3.0,224.7,23 / 27,284535,2020-03-17 13:15:51:197
7.37893,17.03714,5.544971,8.0,49.825695,24.039944,326.0,NaN,5.292,3.0,224.7,22 / 27,285035,2020-03-17 13:15:51:697
13.493721,30.262709,1.580173,8.0,49.825695,24.039944,326.0,NaN,5.292,3.0,224.7,22 / 27,285535,2020-03-17 13:15:52:197
3.96001,1.934515,-0.617704,8.0,49.825695,24.039944,326.0,NaN,5.292,3.0,224.7,21 / 27,286035,2020-03-17 13:15:52:697
1.412579,6.785168,-3.825934,8.0,49.825695,24.039944,326.0,NaN,5.292,3.0,224.7,21 / 27,286535,2020-03-17 13:15:53:197
5.975928,-10.323798,-4.55856,8.0,49.825695,24.039944,326.0,NaN,5.292,3.0,224.7,20 / 27,287036,2020-03-17 13:15:53:698
3.428497,27.14067,3.380613,8.0,49.825695,24.039944,326.0,NaN,5.292,3.0,224.7,20 / 27,287535,2020-03-17 13:15:54:197
-7.532158,6.636728,2.30801,8.0,49.825695,24.039944,326.0,NaN,5.292,3.0,224.7,23 / 27,288035,2020-03-17 13:15:54:697
3.936068,-13.321339,4.496311,8.0,49.825695,24.039944,326.0,NaN,5.292,3.0,224.7,23 / 27,288535,2020-03-17 13:15:55:197
32.039207,31.502907,12.29662,8.0,49.825695,24.039944,326.0,NaN,5.292,3.0,224.7,23 / 27,289035,2020-03-17 13:15:55:697
-0.220267,18.722658,-6.766014,8.0,49.825695,24.039944,326.0,NaN,5.292,3.0,224.7,23 / 27,289535,2020-03-17 13:15:56:197
4.55856,-10.726024,-9.069236,8.0,49.825695,24.039944,326.0,NaN,5.292,3.0,224.7,23 / 27,290036,2020-03-17 13:15:56:698
1.972822,9.442732,0.948104,8.0,49.825695,24.039944,326.0,NaN,5.292,3.0,224.7,23 / 27,290535,2020-03-17 13:15:57:197
27.226862,30.904356,-10.19451,8.0,49.825695,24.039944,326.0,NaN,5.292,3.0,224.7,22 / 27,291035,2020-03-17 13:15:57:697
12.124237,9.346964,-3.20823,8.0,49.825695,24.039944,326.0,NaN,5.292,3.0,224.7,22 / 27,291535,2020-03-17 13:15:58:197
3.916914,10.390836,3.581726,8.0,49.825695,24.039944,326.0,NaN,5.292,3.0,224.7,21 / 27,292035,2020-03-17 13:15:58:697
24.95716,36.779728,2.207454,8.0,49.825695,24.039944,326.0,NaN,5.292,3.0,224.7,21 / 27,292535,2020-03-17 13:15:59:197
5.6982,0.675165,-1.292869,8.0,49.825695,24.039944,326.0,NaN,5.292,3.0,224.7,24 / 27,293035,2020-03-17 13:15:59:697
-4.965574,11.089942,1.493982,8.0,49.825695,24.039944,326.0,NaN,5.292,3.0,224.7,24 / 27,293535,2020-03-17 13:16:00:197
-1.522712,-9.471462,-8.092401,8.0,49.825695,24.039944,326.0,NaN,5.292,3.0,224.7,22 / 27,294035,2020-03-17 13:16:00:697
14.614207,25.00983,9.911995,8.0,49.825695,24.039944,326.0,NaN,5.292,3.0,224.7,22 / 27,294535,2020-03-17 13:16:01:197
-1.819593,11.592725,9.346964,8.0,49.825695,24.039944,326.0,NaN,5.292,3.0,224.7,22 / 27,295035,2020-03-17 13:16:01:697
5.214572,-10.994174,-8.015787,8.0,49.825695,24.039944,326.0,NaN,5.292,3.0,224.7,22 / 27,295535,2020-03-17 13:16:02:197
-2.619257,5.200207,3.452439,8.0,49.825695,24.039944,326.0,NaN,5.292,3.0,224.7,24 / 27,296035,2020-03-17 13:16:02:697
-3.112462,8.944737,1.656788,8.0,49.825695,24.039944,326.0,NaN,5.292,3.0,224.7,24 / 27,296535,2020-03-17 13:16:03:197
-0.80924,-18.258183,-4.012682,8.0,49.825695,24.039944,326.0,NaN,5.292,3.0,224.7,23 / 27,297035,2020-03-17 13:16:03:697
9.988609,18.104954,4.007894,8.0,49.825695,24.039944,326.0,NaN,5.292,3.0,224.7,23 / 27,297535,2020-03-17 13:16:04:197
15.380352,32.03442,-0.344765,8.0,49.825695,24.039944,326.0,NaN,5.292,3.0,224.7,23 / 27,298035,2020-03-17 13:16:04:697
3.916914,-3.605668,-5.281609,8.0,49.825695,24.039944,326.0,NaN,5.292,3.0,224.7,23 / 27,298535,2020-03-17 13:16:05:197
-4.884171,5.923255,1.436521,8.0,49.825695,24.039944,326.0,NaN,5.292,3.0,224.7,23 / 27,299036,2020-03-17 13:16:05:698
2.695871,-8.413225,0.124498,8.0,49.825695,24.039944,326.0,NaN,5.292,3.0,224.7,23 / 27,299535,2020-03-17 13:16:06:197
7.517793,24.578875,1.25935,8.0,49.825695,24.039944,326.0,NaN,5.292,3.0,224.7,23 / 26,300035,2020-03-17 13:16:06:697
-1.383848,13.350069,0.837971,8.0,49.825695,24.039944,326.0,NaN,5.292,3.0,224.7,23 / 26,300536,2020-03-17 13:16:07:198
9.461885,8.015787,-1.077391,8.0,49.825695,24.039944,326.0,NaN,5.292,3.0,224.7,22 / 27,301035,2020-03-17 13:16:07:697
29.937098,28.85492,9.414001,8.0,49.825695,24.039944,326.0,NaN,5.292,3.0,224.7,22 / 27,301535,2020-03-17 13:16:08:197
-2.351106,13.699622,-4.453215,8.0,49.825695,24.039944,326.0,NaN,5.292,3.0,224.7,24 / 27,302035,2020-03-17 13:16:08:697
6.871359,-2.552219,-0.675165,8.0,49.825695,24.039944,326.0,NaN,5.292,3.0,224.7,24 / 27,302535,2020-03-17 13:16:09:197
-1.144428,7.560889,0.751779,8.0,49.825695,24.039944,326.0,NaN,5.292,3.0,224.7,24 / 27,303035,2020-03-17 13:16:09:697
0.574608,-11.099519,-0.517148,8.0,49.825695,24.039944,326.0,NaN,5.292,3.0,224.7,24 / 27,303535,2020-03-17 13:16:10:197
-5.267244,19.04827,1.80044,8.0,49.825695,24.039944,326.0,NaN,5.292,3.0,224.7,24 / 27,304035,2020-03-17 13:16:10:697
39.15956,39.188293,-5.592855,8.0,49.825695,24.039944,326.0,NaN,5.292,3.0,224.7,24 / 27,304536,2020-03-17 13:16:11:198
2.346318,-5.631162,-1.37906,8.0,49.825695,24.039944,326.0,NaN,5.292,3.0,224.7,23 / 27,305035,2020-03-17 13:16:11:697
1.029507,-0.92895,2.341529,8.0,49.825695,24.039944,326.0,NaN,5.292,3.0,224.7,23 / 27,305535,2020-03-17 13:16:12:197
-2.700659,11.659762,-1.613692,8.0,49.825695,24.039944,326.0,NaN,5.292,3.0,224.7,24 / 27,306035,2020-03-17 13:16:12:697
0.708684,-6.397307,-2.193089,8.0,49.825695,24.039944,326.0,NaN,5.292,3.0,224.7,24 / 27,306536,2020-03-17 13:16:13:198
39.188293,39.188293,4.194642,8.0,49.825695,24.039944,326.0,NaN,5.292,3.0,224.7,23 / 27,307035,2020-03-17 13:16:13:697
-1.063026,12.35887,-2.020706,8.0,49.825695,24.039944,326.0,NaN,5.292,3.0,224.7,23 / 27,307535,2020-03-17 13:16:14:197
0.363919,-3.787627,-0.842759,8.0,49.825695,24.039944,326.0,NaN,5.292,3.0,224.7,24 / 27,308035,2020-03-17 13:16:14:697
7.297527,7.589619,-0.995988,8.0,49.825695,24.039944,326.0,NaN,5.292,3.0,224.7,24 / 27,308535,2020-03-17 13:16:15:197
17.942148,21.509508,-0.004788,8.0,49.825695,24.039944,326.0,NaN,5.292,3.0,224.7,23 / 27,309035,2020-03-17 13:16:15:697
4.228161,16.759413,-0.593762,8.0,49.825695,24.039944,326.0,NaN,5.292,3.0,224.7,23 / 27,309535,2020-03-17 13:16:16:197
-0.181959,-20.590134,3.586514,8.0,49.825695,24.039944,326.0,NaN,5.292,3.0,224.7,22 / 27,310036,2020-03-17 13:16:16:698
8.767567,18.909405,-5.497087,8.0,49.825695,24.039944,326.0,NaN,5.292,3.0,224.7,22 / 27,310535,2020-03-17 13:16:17:197
0.933739,14.738706,0.177171,8.0,49.825695,24.039944,326.0,NaN,5.292,3.0,224.7,22 / 27,311035,2020-03-17 13:16:17:697
17.985243,16.49126,-10.486604,8.0,49.825695,24.039944,326.0,NaN,5.292,3.0,224.7,22 / 27,311536,2020-03-17 13:16:18:198
-1.924938,-14.049175,-9.361329,8.0,49.825695,24.039944,326.0,NaN,5.292,3.0,224.7,23 / 27,312035,2020-03-17 13:16:18:697
-0.512359,12.320562,-2.183512,8.0,49.825695,24.039944,326.0,NaN,5.292,3.0,224.7,23 / 27,312535,2020-03-17 13:16:19:197
8.121132,10.34774,0.986411,8.0,49.825695,24.039944,326.0,NaN,5.292,3.0,224.7,24 / 27,313035,2020-03-17 13:16:19:697
0.612916,13.508086,3.730166,8.0,49.825695,24.039944,326.0,NaN,5.292,3.0,224.7,24 / 27,313535,2020-03-17 13:16:20:197
4.74052,-1.197101,-6.411672,8.0,49.825695,24.039944,326.0,NaN,5.292,3.0,224.7,22 / 27,314036,2020-03-17 13:16:20:698
-2.092532,-7.603985,-6.248866,8.0,49.825695,24.039944,326.0,NaN,5.292,3.0,224.7,22 / 27,314535,2020-03-17 13:16:21:197
8.504205,7.340623,2.30801,8.0,49.825695,24.039944,326.0,NaN,5.292,3.0,224.7,23 / 27,315035,2020-03-17 13:16:21:697
8.51857,21.11686,-5.894524,8.0,49.825695,24.039944,326.0,NaN,5.292,3.0,224.7,23 / 27,315536,2020-03-17 13:16:22:198
10.275913,15.988479,0.402226,8.0,49.825695,24.039944,326.0,NaN,5.292,3.0,224.7,21 / 27,316035,2020-03-17 13:16:22:697
-1.613692,-0.799663,-11.262324,8.0,49.825695,24.039944,326.0,NaN,5.292,3.0,224.7,21 / 27,316535,2020-03-17 13:16:23:197
-1.197101,10.764331,-3.682282,8.0,49.825695,24.039944,326.0,NaN,5.292,3.0,224.7,23 / 27,317035,2020-03-17 13:16:23:697
0.311246,7.038953,4.697424,8.0,49.825695,24.039944,326.0,NaN,5.292,3.0,224.7,23 / 27,317535,2020-03-17 13:16:24:197
1.819593,-13.31655,-3.663128,8.0,49.825695,24.039944,326.0,NaN,5.292,3.0,224.7,21 / 27,318035,2020-03-17 13:16:24:697
1.805228,22.668303,7.417237,8.0,49.825695,24.039944,326.0,NaN,5.292,3.0,224.7,21 / 27,318535,2020-03-17 13:16:25:197
12.737153,23.290794,-2.451662,8.0,49.825695,24.039944,326.0,NaN,5.292,3.0,224.7,24 / 27,319035,2020-03-17 13:16:25:697
2.255338,-2.250549,3.687071,8.0,49.825695,24.039944,326.0,NaN,5.292,3.0,224.7,24 / 27,319535,2020-03-17 13:16:26:197
-1.082179,7.25922,-0.3304,8.0,49.825695,24.039944,326.0,NaN,5.292,3.0,224.7,21 / 27,320035,2020-03-17 13:16:26:697
2.082955,22.256498,-12.86644,8.0,49.825695,24.039944,326.0,NaN,5.292,3.0,224.7,21 / 27,320535,2020-03-17 13:16:27:197
9.615114,9.988609,-4.19943,8.0,49.825695,24.039944,326.0,NaN,5.292,3.0,224.7,22 / 27,321035,2020-03-17 13:16:27:697
-0.383072,-10.654198,-0.316035,8.0,49.825695,24.039944,326.0,NaN,5.292,3.0,224.7,22 / 27,321535,2020-03-17 13:16:28:197
5.54976,12.306197,28.687325,8.0,49.825695,24.039944,326.0,NaN,5.292,3.0,224.7,22 / 27,322035,2020-03-17 13:16:28:697
37.952885,38.379055,16.563087,8.0,49.825695,24.039944,326.0,NaN,5.292,3.0,224.7,22 / 27,322535,2020-03-17 13:16:29:197
10.443508,3.27048,-4.611232,8.0,49.825695,24.039944,326.0,NaN,5.292,3.0,224.7,20 / 26,323036,2020-03-17 13:16:29:698
-6.775591,3.567361,-0.263362,8.0,49.825695,24.039944,326.0,NaN,5.292,3.0,224.7,20 / 26,323535,2020-03-17 13:16:30:197
11.865664,-12.330139,1.043872,8.0,49.825695,24.039944,326.0,NaN,5.292,3.0,224.7,19 / 24,324035,2020-03-17 13:16:30:697
4.381389,31.895555,7.963115,8.0,49.825695,24.039944,326.0,NaN,5.292,3.0,224.7,19 / 24,324535,2020-03-17 13:16:31:197
-5.568913,6.80911,4.050989,8.0,49.825695,24.039944,326.0,NaN,5.292,3.0,224.7,19 / 25,325035,2020-03-17 13:16:31:697
10.821792,-9.840169,4.060566,8.0,49.825695,24.039944,326.0,NaN,5.292,3.0,224.7,19 / 25,325536,2020-03-17 13:16:32:198
27.2939,30.899567,-10.04607,8.0,49.825695,24.039944,326.0,NaN,5.292,3.0,224.7,20 / 26,326035,2020-03-17 13:16:32:697
2.346318,15.500062,2.011129,8.0,49.825695,24.039944,326.0,NaN,5.292,3.0,224.7,20 / 26,326535,2020-03-17 13:16:33:197
4.084508,-9.835381,-3.122039,8.0,49.825695,24.039944,326.0,NaN,5.292,3.0,224.7,21 / 26,327036,2020-03-17 13:16:33:698
-2.667141,14.475344,-2.437297,8.0,49.825695,24.039944,326.0,NaN,5.292,3.0,224.7,21 / 26,327536,2020-03-17 13:16:34:198
9.682152,19.665974,-1.058237,8.0,49.825695,24.039944,326.0,NaN,5.292,3.0,224.7,20 / 26,328035,2020-03-17 13:16:34:697
15.538369,16.596605,4.065354,8.0,49.825695,24.039944,326.0,NaN,5.292,3.0,224.7,20 / 26,328535,2020-03-17 13:16:35:197
0.718261,7.862559,0.057461,8.0,49.825695,24.039944,326.0,NaN,5.292,3.0,224.7,21 / 27,329035,2020-03-17 13:16:35:697
33.23631,33.92105,-2.37026,8.0,49.825695,24.039944,326.0,NaN,5.292,3.0,224.7,21 / 27,329535,2020-03-17 13:16:36:197
9.653421,4.003105,-4.884171,8.0,49.825695,24.039944,326.0,NaN,5.292,3.0,224.7,21 / 27,330035,2020-03-17 13:16:36:697
-3.184288,7.129933,-0.402226,8.0,49.825695,24.039944,326.0,NaN,5.292,3.0,224.7,21 / 27,330535,2020-03-17 13:16:37:197
2.140417,-19.278112,2.102109,8.0,49.825626,24.038206,322.0,NaN,8.028,3.5,243.7,19 / 27,331035,2020-03-17 13:16:37:697
6.550536,27.365725,2.801216,8.0,49.825626,24.038206,322.0,NaN,8.028,3.5,243.7,19 / 27,331535,2020-03-17 13:16:38:197
22.323536,34.419044,3.20823,8.0,49.825626,24.038206,322.0,NaN,8.028,3.5,243.7,19 / 27,332035,2020-03-17 13:16:38:697
6.397307,5.042189,0.78051,8.0,49.825626,24.038206,322.0,NaN,8.028,3.5,243.7,19 / 27,332535,2020-03-17 13:16:39:197
-0.033519,11.449073,1.565808,8.0,49.825626,24.038206,322.0,NaN,8.028,3.5,243.7,19 / 27,333035,2020-03-17 13:16:39:697
6.90009,-14.106636,0.301669,8.0,49.825626,24.038206,322.0,NaN,8.028,3.5,243.7,19 / 27,333535,2020-03-17 13:16:40:197
15.581465,12.382812,-0.708684,8.0,49.825626,24.038206,322.0,NaN,8.028,3.5,243.7,17 / 26,334035,2020-03-17 13:16:40:697
1.393425,13.168109,2.633622,8.0,49.825626,24.038206,322.0,NaN,8.028,3.5,243.7,17 / 26,334536,2020-03-17 13:16:41:198
8.954314,-17.7554,0.172383,8.0,49.825626,24.038206,322.0,NaN,8.028,3.5,243.7,18 / 27,335035,2020-03-17 13:16:41:697
3.356671,14.518439,5.76045,8.0,49.825626,24.038206,322.0,NaN,8.028,3.5,243.7,18 / 27,335535,2020-03-17 13:16:42:197
15.102624,31.387985,4.19943,8.0,49.825626,24.038206,322.0,NaN,8.028,3.5,243.7,18 / 27,336035,2020-03-17 13:16:42:697
6.47871,-3.68707,-2.533065,8.0,49.825626,24.038206,322.0,NaN,8.028,3.5,243.7,18 / 27,336535,2020-03-17 13:16:43:197
-1.292869,7.144298,0.847547,8.0,49.825626,24.038206,322.0,NaN,8.028,3.5,243.7,20 / 26,337035,2020-03-17 13:16:43:697
4.314352,-3.222595,-6.100425,8.0,49.825626,24.038206,322.0,NaN,8.028,3.5,243.7,20 / 26,337535,2020-03-17 13:16:44:197
4.132392,-3.854665,-2.72939,8.0,49.825626,24.038206,322.0,NaN,8.028,3.5,243.7,20 / 26,338035,2020-03-17 13:16:44:697
-2.552219,4.606444,0.790087,8.0,49.825626,24.038206,322.0,NaN,8.028,3.5,243.7,20 / 26,338535,2020-03-17 13:16:45:197
5.583278,-2.60968,-1.565808,8.0,49.825626,24.038206,322.0,NaN,8.028,3.5,243.7,18 / 27,339035,2020-03-17 13:16:45:697
24.195803,25.325865,2.920926,8.0,49.825626,24.038206,322.0,NaN,8.028,3.5,243.7,18 / 27,339535,2020-03-17 13:16:46:197
-1.005565,15.126566,-0.057461,8.0,49.825626,24.038206,322.0,NaN,8.028,3.5,243.7,20 / 27,340036,2020-03-17 13:16:46:698
5.291186,-7.015011,-2.858677,8.0,49.825626,24.038206,322.0,NaN,8.028,3.5,243.7,20 / 27,340535,2020-03-17 13:16:47:197
-4.242525,6.641516,7.374141,8.0,49.825626,24.038206,322.0,NaN,8.028,3.5,243.7,20 / 27,341035,2020-03-17 13:16:47:697
36.176388,25.40248,-2.863465,8.0,49.825626,24.038206,322.0,NaN,8.028,3.5,243.7,20 / 27,341535,2020-03-17 13:16:48:197
14.580688,9.26556,-1.58975,8.0,49.825626,24.038206,322.0,NaN,8.028,3.5,243.7,20 / 26,342035,2020-03-17 13:16:48:697
3.260903,17.195156,1.086968,8.0,49.825626,24.038206,322.0,NaN,8.028,3.5,243.7,20 / 26,342535,2020-03-17 13:16:49:197
15.749059,29.434317,5.324705,8.0,49.825626,24.038206,322.0,NaN,8.028,3.5,243.7,18 / 27,343035,2020-03-17 13:16:49:697
5.046977,0.004788,-3.596091,8.0,49.825626,24.038206,322.0,NaN,8.028,3.5,243.7,18 / 27,343535,2020-03-17 13:16:50:197
-3.313575,5.085284,-0.651223,8.0,49.825626,24.038206,322.0,NaN,8.028,3.5,243.7,19 / 27,344035,2020-03-17 13:16:50:697
3.634398,-11.640609,-4.860229,8.0,49.825626,24.038206,322.0,NaN,8.028,3.5,243.7,19 / 27,344535,2020-03-17 13:16:51:197
17.932571,37.746983,5.664682,8.0,49.825626,24.038206,322.0,NaN,8.028,3.5,243.7,18 / 27,345036,2020-03-17 13:16:51:698
3.86903,22.70661,7.000646,8.0,49.825626,24.038206,322.0,NaN,8.028,3.5,243.7,18 / 27,345535,2020-03-17 13:16:52:197
3.687071,-4.213795,-4.836287,8.0,49.825626,24.038206,322.0,NaN,8.028,3.5,243.7,19 / 27,346035,2020-03-17 13:16:52:697
8.987833,24.396915,10.208876,8.0,49.825626,24.038206,322.0,NaN,8.028,3.5,243.7,19 / 27,346535,2020-03-17 13:16:53:197
5.93762,23.089682,6.138734,8.0,49.825626,24.038206,322.0,NaN,8.028,3.5,243.7,20 / 27,347035,2020-03-17 13:16:53:697
4.256891,-4.357447,-4.362235,8.0,49.825626,24.038206,322.0,NaN,8.028,3.5,243.7,20 / 27,347535,2020-03-17 13:16:54:197
-2.346318,7.972692,2.762909,8.0,49.825626,24.038206,322.0,NaN,8.028,3.5,243.7,19 / 27,348035,2020-03-17 13:16:54:697
9.696517,-4.697424,-1.508347,8.0,49.825626,24.038206,322.0,NaN,8.028,3.5,243.7,19 / 27,348535,2020-03-17 13:16:55:197
29.530085,28.90759,4.730943,8.0,49.825626,24.038206,322.0,NaN,8.028,3.5,243.7,22 / 27,349035,2020-03-17 13:16:55:697
-2.806004,12.588713,1.651999,8.0,49.825626,24.038206,322.0,NaN,8.028,3.5,243.7,22 / 27,349536,2020-03-17 13:16:56:198
2.552219,-9.241618,-3.337517,8.0,49.825626,24.038206,322.0,NaN,8.028,3.5,243.7,21 / 27,350035,2020-03-17 13:16:56:697
19.55105,19.934124,2.087744,8.0,49.825626,24.038206,322.0,NaN,8.028,3.5,243.7,21 / 27,350535,2020-03-17 13:16:57:197
-5.147533,8.240842,-4.132392,8.0,49.825626,24.038206,322.0,NaN,8.028,3.5,243.7,21 / 27,351035,2020-03-17 13:16:57:697
6.05733,-10.228029,-2.911349,8.0,49.825626,24.038206,322.0,NaN,8.028,3.5,243.7,21 / 27,351535,2020-03-17 13:16:58:197
-2.082955,9.5385,3.284845,8.0,49.825626,24.038206,322.0,NaN,8.028,3.5,243.7,21 / 27,352036,2020-03-17 13:16:58:698
16.55351,16.898275,2.475605,8.0,49.825626,24.038206,322.0,NaN,8.028,3.5,243.7,21 / 27,352535,2020-03-17 13:16:59:197
16.333244,14.030022,2.738967,8.0,49.825626,24.038206,322.0,NaN,8.028,3.5,243.7,22 / 27,353035,2020-03-17 13:16:59:697
-5.410896,6.038177,-4.539406,8.0,49.825626,24.038206,322.0,NaN,8.028,3.5,243.7,22 / 27,353535,2020-03-17 13:17:00:197
8.303091,-13.996503,0.277727,8.0,49.825626,24.038206,322.0,NaN,8.028,3.5,243.7,20 / 27,354035,2020-03-17 13:17:00:697
12.052411,5.947197,2.882619,8.0,49.825626,24.038206,322.0,NaN,8.028,3.5,243.7,20 / 27,354535,2020-03-17 13:17:01:197
-4.79798,4.821923,-1.757344,8.0,49.825626,24.038206,322.0,NaN,8.028,3.5,243.7,21 / 27,355035,2020-03-17 13:17:01:697
1.795651,-13.977349,1.077391,8.0,49.825626,24.038206,322.0,NaN,8.028,3.5,243.7,21 / 27,355535,2020-03-17 13:17:02:197
13.335704,19.230228,12.181698,8.0,49.825626,24.038206,322.0,NaN,8.028,3.5,243.7,22 / 27,356035,2020-03-17 13:17:02:697
11.587936,22.716187,8.073248,8.0,49.825626,24.038206,322.0,NaN,8.028,3.5,243.7,22 / 27,356535,2020-03-17 13:17:03:197
2.178724,-1.623269,-1.944092,8.0,49.825626,24.038206,322.0,NaN,8.028,3.5,243.7,21 / 27,357035,2020-03-17 13:17:03:697
2.815581,5.377377,4.309563,8.0,49.825626,24.038206,322.0,NaN,8.028,3.5,243.7,21 / 27,357535,2020-03-17 13:17:04:197
17.496826,8.231265,0.407014,8.0,49.825626,24.038206,322.0,NaN,8.028,3.5,243.7,22 / 27,358035,2020-03-17 13:17:04:697
15.394717,20.250158,8.327033,8.0,49.825626,24.038206,322.0,NaN,8.028,3.5,243.7,22 / 27,358536,2020-03-17 13:17:05:198
2.001553,9.696517,-0.675165,8.0,49.825626,24.038206,322.0,NaN,8.028,3.5,243.7,20 / 26,359035,2020-03-17 13:17:05:697
26.29791,27.945122,9.399636,8.0,49.825626,24.038206,322.0,NaN,8.028,3.5,243.7,20 / 26,359535,2020-03-17 13:17:06:197
6.502652,2.973599,-1.149217,8.0,49.825626,24.038206,322.0,NaN,8.028,3.5,243.7,20 / 27,360035,2020-03-17 13:17:06:697
-1.632845,11.200075,7.680599,8.0,49.825626,24.038206,322.0,NaN,8.028,3.5,243.7,20 / 27,360535,2020-03-17 13:17:07:197
5.841852,-7.747637,-6.646304,8.0,49.825626,24.038206,322.0,NaN,8.028,3.5,243.7,18 / 24,361035,2020-03-17 13:17:07:697
12.095507,28.31383,5.702989,8.0,49.825626,24.038206,322.0,NaN,8.028,3.5,243.7,18 / 24,361536,2020-03-17 13:17:08:198
-0.45011,18.550274,0.933739,8.0,49.825626,24.038206,322.0,NaN,8.028,3.5,243.7,19 / 26,362035,2020-03-17 13:17:08:697
5.822699,-13.244724,0.181959,8.0,49.825626,24.038206,322.0,NaN,8.028,3.5,243.7,19 / 26,362535,2020-03-17 13:17:09:197
15.26543,15.112201,2.600103,8.0,49.825626,24.038206,322.0,NaN,8.028,3.5,243.7,18 / 27,363036,2020-03-17 13:17:09:698
-6.890512,5.0374,-1.546654,8.0,49.825626,24.038206,322.0,NaN,8.028,3.5,243.7,18 / 27,363535,2020-03-17 13:17:10:197
3.107674,-10.625467,-3.916914,8.0,49.825626,24.038206,322.0,NaN,8.028,3.5,243.7,18 / 27,364035,2020-03-17 13:17:10:697
-1.939303,21.878216,9.097966,8.0,49.825626,24.038206,322.0,NaN,8.028,3.5,243.7,18 / 27,364536,2020-03-17 13:17:11:198
6.526594,20.144814,-2.806004,8.0,49.825626,24.038206,322.0,NaN,8.028,3.5,243.7,20 / 27,365035,2020-03-17 13:17:11:697
1.326388,-6.277597,-1.594538,8.0,49.825626,24.038206,322.0,NaN,8.028,3.5,243.7,20 / 27,365535,2020-03-17 13:17:12:197
-3.184288,8.240842,1.493982,8.0,49.825626,24.038206,322.0,NaN,8.028,3.5,243.7,18 / 27,366035,2020-03-17 13:17:12:697
10.338163,20.66675,-5.96635,8.0,49.825626,24.038206,322.0,NaN,8.028,3.5,243.7,18 / 27,366535,2020-03-17 13:17:13:197
9.677363,22.318748,0.100556,8.0,49.825626,24.038206,322.0,NaN,8.028,3.5,243.7,20 / 27,367036,2020-03-17 13:17:13:698
1.216255,5.415684,5.774815,8.0,49.825626,24.038206,322.0,NaN,8.028,3.5,243.7,20 / 27,367535,2020-03-17 13:17:14:197
26.24045,33.447,0.038307,8.0,49.825626,24.038206,322.0,NaN,8.028,3.5,243.7,20 / 27,368035,2020-03-17 13:17:14:697
8.810662,2.341529,-9.23683,8.0,49.825626,24.038206,322.0,NaN,8.028,3.5,243.7,20 / 27,368536,2020-03-17 13:17:15:198
0.665588,9.323022,7.82904,8.0,49.825626,24.038206,322.0,NaN,8.028,3.5,243.7,18 / 27,369035,2020-03-17 13:17:15:697
-0.512359,-12.373235,1.695095,8.0,49.825626,24.038206,322.0,NaN,8.028,3.5,243.7,18 / 27,369535,2020-03-17 13:17:16:197
20.187908,31.555578,4.951209,8.0,49.825626,24.038206,322.0,NaN,8.028,3.5,243.7,18 / 26,370035,2020-03-17 13:17:16:697
0.761356,16.180016,3.744532,8.0,49.825626,24.038206,322.0,NaN,8.028,3.5,243.7,18 / 26,370535,2020-03-17 13:17:17:197
8.714894,-6.512228,0.45011,8.0,49.825626,24.038206,322.0,NaN,8.028,3.5,243.7,18 / 26,371036,2020-03-17 13:17:17:698
6.44998,10.630256,6.44998,8.0,49.825626,24.038206,322.0,NaN,8.028,3.5,243.7,18 / 26,371535,2020-03-17 13:17:18:197
-3.44765,7.718907,0.560243,8.0,49.825626,24.038206,322.0,NaN,8.028,3.5,243.7,18 / 26,372036,2020-03-17 13:17:18:698
4.86023,-13.101071,-1.000776,8.0,49.825626,24.038206,322.0,NaN,8.028,3.5,243.7,18 / 26,372535,2020-03-17 13:17:19:197
3.107674,19.694704,0.799663,8.0,49.825626,24.038206,322.0,NaN,8.028,3.5,243.7,19 / 26,373035,2020-03-17 13:17:19:697
7.460333,21.289242,-1.632845,8.0,49.825626,24.038206,322.0,NaN,8.028,3.5,243.7,19 / 26,373535,2020-03-17 13:17:20:197
3.763685,-9.461885,-6.358999,8.0,49.825626,24.038206,322.0,NaN,8.028,3.5,243.7,21 / 25,374035,2020-03-17 13:17:20:697
3.768474,11.291056,5.521029,8.0,49.825626,24.038206,322.0,NaN,8.028,3.5,243.7,21 / 25,374535,2020-03-17 13:17:21:197
20.977995,19.062634,-3.126827,8.0,49.825626,24.038206,322.0,NaN,8.028,3.5,243.7,22 / 26,375035,2020-03-17 13:17:21:697
2.145205,-12.808979,-2.130839,8.0,49.825626,24.038206,322.0,NaN,8.028,3.5,243.7,22 / 26,375535,2020-03-17 13:17:22:197
3.586514,12.761095,0.196325,8.0,49.825626,24.038206,322.0,NaN,8.028,3.5,243.7,24 / 26,376036,2020-03-17 13:17:22:698
17.970879,27.80626,5.664682,8.0,49.825626,24.038206,322.0,NaN,8.028,3.5,243.7,24 / 26,376535,2020-03-17 13:17:23:197
-0.071826,-2.705448,-4.429273,8.0,49.825626,24.038206,322.0,NaN,8.028,3.5,243.7,24 / 26,377035,2020-03-17 13:17:23:697
-2.748543,8.60955,4.515465,8.0,49.825626,24.038206,322.0,NaN,8.028,3.5,243.7,24 / 26,377535,2020-03-17 13:17:24:197
16.812084,4.237737,-3.093309,8.0,49.825626,24.038206,322.0,NaN,8.028,3.5,243.7,23 / 25,378036,2020-03-17 13:17:24:698
19.680338,21.107283,-6.933608,8.0,49.825626,24.038206,322.0,NaN,8.028,3.5,243.7,23 / 25,378535,2020-03-17 13:17:25:197
-5.808333,7.149087,-1.853112,8.0,49.825176,24.03626,320.0,NaN,10.656,3.5,301.1,21 / 25,379035,2020-03-17 13:17:25:697
22.629995,34.85,5.329493,8.0,49.825176,24.03626,320.0,NaN,10.656,3.5,301.1,21 / 25,379535,2020-03-17 13:17:26:197
6.023812,3.145981,-1.752556,8.0,49.825176,24.03626,320.0,NaN,10.656,3.5,301.1,22 / 26,380035,2020-03-17 13:17:26:697
-3.160346,6.129156,-1.422156,8.0,49.825176,24.03626,320.0,NaN,10.656,3.5,301.1,22 / 26,380535,2020-03-17 13:17:27:197
1.206678,-8.408437,-8.595184,8.0,49.825176,24.03626,320.0,NaN,10.656,3.5,301.1,23 / 26,381035,2020-03-17 13:17:27:697
14.829685,31.287428,13.129802,8.0,49.825176,24.03626,320.0,NaN,10.656,3.5,301.1,23 / 26,381535,2020-03-17 13:17:28:197
-3.318364,14.398729,-0.881066,8.0,49.825176,24.03626,320.0,NaN,10.656,3.5,301.1,20 / 25,382035,2020-03-17 13:17:28:697
8.413225,-10.539276,-6.665457,8.0,49.825176,24.03626,320.0,NaN,10.656,3.5,301.1,20 / 25,382535,2020-03-17 13:17:29:197
-0.804452,8.001422,6.885724,8.0,49.825176,24.03626,320.0,NaN,10.656,3.5,301.1,21 / 26,383035,2020-03-17 13:17:29:697
-6.186617,3.72059,-2.925714,8.0,49.825176,24.03626,320.0,NaN,10.656,3.5,301.1,21 / 26,383535,2020-03-17 13:17:30:197
3.002329,-10.433931,-8.264784,8.0,49.825176,24.03626,320.0,NaN,10.656,3.5,301.1,19 / 26,384036,2020-03-17 13:17:30:698
9.131485,25.967512,7.661446,8.0,49.825176,24.03626,320.0,NaN,10.656,3.5,301.1,19 / 26,384535,2020-03-17 13:17:31:197
-1.460463,18.253393,7.398083,8.0,49.825176,24.03626,320.0,NaN,10.656,3.5,301.1,21 / 26,385036,2020-03-17 13:17:31:698
5.477934,-7.934384,-5.171476,8.0,49.825176,24.03626,320.0,NaN,10.656,3.5,301.1,21 / 26,385535,2020-03-17 13:17:32:197
-2.27928,8.90643,6.373365,8.0,49.825176,24.03626,320.0,NaN,10.656,3.5,301.1,19 / 26,386035,2020-03-17 13:17:32:697
20.326773,23.649925,-1.25935,8.0,49.825176,24.03626,320.0,NaN,10.656,3.5,301.1,19 / 26,386535,2020-03-17 13:17:33:197
3.011906,5.894525,7.235278,8.0,49.825176,24.03626,320.0,NaN,10.656,3.5,301.1,19 / 26,387035,2020-03-17 13:17:33:697
-1.374272,7.07726,-0.579397,8.0,49.825176,24.03626,320.0,NaN,10.656,3.5,301.1,19 / 26,387535,2020-03-17 13:17:34:197
-7.900865,1.723825,-8.441956,8.0,49.825176,24.03626,320.0,NaN,10.656,3.5,301.1,20 / 26,388035,2020-03-17 13:17:34:697
13.848063,18.459295,1.685518,8.0,49.825176,24.03626,320.0,NaN,10.656,3.5,301.1,20 / 26,388535,2020-03-17 13:17:35:197
0.622492,15.562311,-1.781286,8.0,49.825176,24.03626,320.0,NaN,10.656,3.5,301.1,19 / 25,389035,2020-03-17 13:17:35:697
4.716578,-1.513135,-0.158017,8.0,49.825176,24.03626,320.0,NaN,10.656,3.5,301.1,19 / 25,389535,2020-03-17 13:17:36:197
-6.698976,4.678271,5.827487,8.0,49.825176,24.03626,320.0,NaN,10.656,3.5,301.1,20 / 26,390035,2020-03-17 13:17:36:697
12.516887,-6.129156,-3.466804,8.0,49.825176,24.03626,320.0,NaN,10.656,3.5,301.1,20 / 26,390535,2020-03-17 13:17:37:197
22.572535,33.65769,11.69807,8.0,49.825176,24.03626,320.0,NaN,10.656,3.5,301.1,23 / 26,391035,2020-03-17 13:17:37:697
-2.212242,9.006987,-1.216254,8.0,49.825176,24.03626,320.0,NaN,10.656,3.5,301.1,23 / 26,391535,2020-03-17 13:17:38:197
28.859707,32.728737,6.167464,8.0,49.825176,24.03626,320.0,NaN,10.656,3.5,301.1,24 / 26,392035,2020-03-17 13:17:38:697
-2.619257,4.716578,-3.53863,8.0,49.825176,24.03626,320.0,NaN,10.656,3.5,301.1,24 / 26,392535,2020-03-17 13:17:39:197
-4.979939,5.932832,-2.331952,8.0,49.825176,24.03626,320.0,NaN,10.656,3.5,301.1,23 / 26,393036,2020-03-17 13:17:39:698
20.973207,0.612916,-6.53617,8.0,49.825176,24.03626,320.0,NaN,10.656,3.5,301.1,23 / 26,393535,2020-03-17 13:17:40:197
16.170439,29.6881,1.086968,8.0,49.825176,24.03626,320.0,NaN,10.656,3.5,301.1,23 / 25,394036,2020-03-17 13:17:40:698
2.322376,15.610195,-1.656788,8.0,49.825176,24.03626,320.0,NaN,10.656,3.5,301.1,23 / 25,394535,2020-03-17 13:17:41:197
3.979163,-9.739613,-4.194641,8.0,49.825176,24.03626,320.0,NaN,10.656,3.5,301.1,22 / 25,395035,2020-03-17 13:17:41:697
-2.389413,7.900866,2.75812,8.0,49.825176,24.03626,320.0,NaN,10.656,3.5,301.1,22 / 25,395535,2020-03-17 13:17:42:197
-1.015141,8.504205,0.6608,8.0,49.825176,24.03626,320.0,NaN,10.656,3.5,301.1,22 / 25,396035,2020-03-17 13:17:42:697
4.477157,-15.591042,-1.063026,8.0,49.825176,24.03626,320.0,NaN,10.656,3.5,301.1,22 / 25,396536,2020-03-17 13:17:43:198
5.080496,14.202404,2.662352,8.0,49.825176,24.03626,320.0,NaN,10.656,3.5,301.1,21 / 26,397035,2020-03-17 13:17:43:697
27.638664,33.47094,13.31655,8.0,49.825176,24.03626,320.0,NaN,10.656,3.5,301.1,21 / 26,397536,2020-03-17 13:17:44:198
7.23049,0.426168,-5.626374,8.0,49.825176,24.03626,320.0,NaN,10.656,3.5,301.1,20 / 26,398035,2020-03-17 13:17:44:697
-2.54743,6.26802,2.30801,8.0,49.825176,24.03626,320.0,NaN,10.656,3.5,301.1,20 / 26,398535,2020-03-17 13:17:45:197
8.623915,-2.834735,-0.981623,8.0,49.825176,24.03626,320.0,NaN,10.656,3.5,301.1,21 / 26,399035,2020-03-17 13:17:45:697
21.677105,29.319393,4.654328,8.0,49.825176,24.03626,320.0,NaN,10.656,3.5,301.1,21 / 26,399535,2020-03-17 13:17:46:197
-3.232172,10.510546,-0.847547,8.0,49.825176,24.03626,320.0,NaN,10.656,3.5,301.1,18 / 25,400035,2020-03-17 13:17:46:697
33.59065,39.188293,0.3304,8.0,49.825176,24.03626,320.0,NaN,10.656,3.5,301.1,18 / 25,400536,2020-03-17 13:17:47:198
6.732496,2.542642,-2.245761,8.0,49.825176,24.03626,320.0,NaN,10.656,3.5,301.1,20 / 27,401035,2020-03-17 13:17:47:697
-3.083732,4.807557,1.412579,8.0,49.825176,24.03626,320.0,NaN,10.656,3.5,301.1,20 / 27,401535,2020-03-17 13:17:48:197
0.814029,-9.792285,-6.023811,8.0,49.825176,24.03626,320.0,NaN,10.656,3.5,301.1,22 / 27,402035,2020-03-17 13:17:48:697
13.876793,30.717607,7.723695,8.0,49.825176,24.03626,320.0,NaN,10.656,3.5,301.1,22 / 27,402535,2020-03-17 13:17:49:197
5.827487,19.364304,7.240066,8.0,49.825176,24.03626,320.0,NaN,10.656,3.5,301.1,21 / 27,403035,2020-03-17 13:17:49:697
5.21936,-7.546523,-3.485957,8.0,49.825176,24.03626,320.0,NaN,10.656,3.5,301.1,21 / 27,403535,2020-03-17 13:17:50:197
-1.690306,8.657434,4.831499,8.0,49.825176,24.03626,320.0,NaN,10.656,3.5,301.1,20 / 27,404035,2020-03-17 13:17:50:697
-8.552089,5.353435,3.409343,8.0,49.825176,24.03626,320.0,NaN,10.656,3.5,301.1,20 / 27,404535,2020-03-17 13:17:51:197
1.37906,-9.433155,-8.963891,8.0,49.825176,24.03626,320.0,NaN,10.656,3.5,301.1,23 / 27,405035,2020-03-17 13:17:51:697
13.268666,35.012802,25.292345,8.0,49.825176,24.03626,320.0,NaN,10.656,3.5,301.1,23 / 27,405535,2020-03-17 13:17:52:197
0.627281,22.639572,5.329493,8.0,49.825176,24.03626,320.0,NaN,10.656,3.5,301.1,23 / 27,406036,2020-03-17 13:17:52:698
-1.465251,-1.484405,-1.513135,8.0,49.825176,24.03626,320.0,NaN,10.656,3.5,301.1,23 / 27,406535,2020-03-17 13:17:53:197
-1.537077,-0.014365,-4.750096,8.0,49.825176,24.03626,320.0,NaN,10.656,3.5,301.1,23 / 27,407035,2020-03-17 13:17:53:697
-15.217546,9.983821,-13.618219,8.0,49.825176,24.03626,320.0,NaN,10.656,3.5,301.1,23 / 27,407535,2020-03-17 13:17:54:197
9.715671,17.741035,20.36029,8.0,49.825176,24.03626,320.0,NaN,10.656,3.5,301.1,22 / 27,408035,2020-03-17 13:17:54:697
-4.256891,4.572925,-0.320823,8.0,49.825176,24.03626,320.0,NaN,10.656,3.5,301.1,22 / 27,408535,2020-03-17 13:17:55:197
7.603985,-9.528923,-2.911349,8.0,49.825176,24.03626,320.0,NaN,10.656,3.5,301.1,21 / 26,409035,2020-03-17 13:17:55:697
23.108835,28.902803,7.402872,8.0,49.825176,24.03626,320.0,NaN,10.656,3.5,301.1,21 / 26,409535,2020-03-17 13:17:56:197
-2.389413,6.469133,4.185065,8.0,49.825176,24.03626,320.0,NaN,10.656,3.5,301.1,21 / 26,410036,2020-03-17 13:17:56:698
32.168495,31.694443,2.901773,8.0,49.825176,24.03626,320.0,NaN,10.656,3.5,301.1,21 / 26,410535,2020-03-17 13:17:57:197
6.464345,6.124368,-6.833051,8.0,49.825176,24.03626,320.0,NaN,10.656,3.5,301.1,19 / 25,411035,2020-03-17 13:17:57:697
-3.979163,2.667141,-0.181959,8.0,49.825176,24.03626,320.0,NaN,10.656,3.5,301.1,19 / 25,411536,2020-03-17 13:17:58:198
1.73819,-14.221559,-5.573701,8.0,49.825176,24.03626,320.0,NaN,10.656,3.5,301.1,21 / 25,412035,2020-03-17 13:17:58:697
19.024326,32.340878,3.280056,8.0,49.825176,24.03626,320.0,NaN,10.656,3.5,301.1,21 / 25,412536,2020-03-17 13:17:59:198
3.093309,18.411411,3.074155,8.0,49.825176,24.03626,320.0,NaN,10.656,3.5,301.1,19 / 24,413035,2020-03-17 13:17:59:697
2.935291,-5.96635,-4.960786,8.0,49.825176,24.03626,320.0,NaN,10.656,3.5,301.1,19 / 24,413535,2020-03-17 13:18:00:197
17.190369,19.598934,1.513135,8.0,49.825176,24.03626,320.0,NaN,10.656,3.5,301.1,22 / 27,414035,2020-03-17 13:18:00:697
-2.920926,9.136273,-0.009577,8.0,49.825176,24.03626,320.0,NaN,10.656,3.5,301.1,22 / 27,414535,2020-03-17 13:18:01:197
3.05979,-15.480908,-5.803545,8.0,49.825176,24.03626,320.0,NaN,10.656,3.5,301.1,22 / 27,415035,2020-03-17 13:18:01:697
7.49864,18.02355,4.314352,8.0,49.825176,24.03626,320.0,NaN,10.656,3.5,301.1,22 / 27,415536,2020-03-17 13:18:02:198
11.851298,25.46473,5.3678,8.0,49.825176,24.03626,320.0,NaN,10.656,3.5,301.1,23 / 27,416035,2020-03-17 13:18:02:697
6.042965,-2.331952,-3.490746,8.0,49.825176,24.03626,320.0,NaN,10.656,3.5,301.1,23 / 27,416535,2020-03-17 13:18:03:197
-2.451662,5.363012,1.235408,8.0,49.825176,24.03626,320.0,NaN,10.656,3.5,301.1,23 / 26,417035,2020-03-17 13:18:03:697
14.810532,2.772486,-0.512359,8.0,49.825176,24.03626,320.0,NaN,10.656,3.5,301.1,23 / 26,417535,2020-03-17 13:18:04:197
17.650055,18.976442,4.936844,8.0,49.825176,24.03626,320.0,NaN,10.656,3.5,301.1,22 / 27,418036,2020-03-17 13:18:04:698
-2.298433,5.884948,5.865794,8.0,49.825176,24.03626,320.0,NaN,10.656,3.5,301.1,22 / 27,418535,2020-03-17 13:18:05:197
23.290794,30.042442,-5.913678,8.0,49.825176,24.03626,320.0,NaN,10.656,3.5,301.1,20 / 27,419035,2020-03-17 13:18:05:697
7.97748,8.992621,-4.362235,8.0,49.825176,24.03626,320.0,NaN,10.656,3.5,301.1,20 / 27,419536,2020-03-17 13:18:06:198
-4.252102,4.323929,-2.992752,8.0,49.825176,24.03626,320.0,NaN,10.656,3.5,301.1,22 / 27,420035,2020-03-17 13:18:06:697
-1.723825,-12.497733,-2.379836,8.0,49.825176,24.03626,320.0,NaN,10.656,3.5,301.1,22 / 27,420535,2020-03-17 13:18:07:197
10.903194,31.033642,-0.339977,8.0,49.825176,24.03626,320.0,NaN,10.656,3.5,301.1,22 / 27,421035,2020-03-17 13:18:07:697
5.319916,22.495918,3.050213,8.0,49.825176,24.03626,320.0,NaN,10.656,3.5,301.1,22 / 27,421535,2020-03-17 13:18:08:197
3.155558,-5.00867,-4.668693,8.0,49.825176,24.03626,320.0,NaN,10.656,3.5,301.1,20 / 27,422036,2020-03-17 13:18:08:698
25.785551,26.087221,-1.896208,8.0,49.825176,24.03626,320.0,NaN,10.656,3.5,301.1,20 / 27,422535,2020-03-17 13:18:09:197
-2.140416,10.304645,-0.153229,8.0,49.825176,24.03626,320.0,NaN,10.656,3.5,301.1,21 / 27,423035,2020-03-17 13:18:09:697
7.900866,-8.729259,-4.070143,8.0,49.825176,24.03626,320.0,NaN,10.656,3.5,301.1,21 / 27,423535,2020-03-17 13:18:10:197
0.454898,9.332599,4.774039,8.0,49.825176,24.03626,320.0,NaN,10.656,3.5,301.1,21 / 26,424036,2020-03-17 13:18:10:698
28.955475,26.336218,19.349937,8.0,49.825176,24.03626,320.0,NaN,10.656,3.5,301.1,21 / 26,424535,2020-03-17 13:18:11:197
4.151546,-1.982399,-4.458003,8.0,49.825176,24.03626,320.0,NaN,10.656,3.5,301.1,21 / 26,425035,2020-03-17 13:18:11:697
-4.49631,5.602432,2.571373,8.0,49.825176,24.03626,320.0,NaN,10.656,3.5,301.1,21 / 26,425535,2020-03-17 13:18:12:197
13.043611,6.703765,-2.509123,8.0,49.825176,24.03626,320.0,NaN,10.656,3.5,301.1,19 / 26,426035,2020-03-17 13:18:12:697
15.485697,19.64203,8.556877,8.0,49.825176,24.03626,320.0,NaN,10.656,3.5,301.1,19 / 26,426535,2020-03-17 13:18:13:197
-5.851429,10.261548,0.220267,8.0,49.826015,24.034937,327.0,NaN,10.44,2.5,325.0,19 / 25,427035,2020-03-17 13:18:13:697
24.430433,29.707254,-4.352658,8.0,49.826015,24.034937,327.0,NaN,10.44,2.5,325.0,19 / 25,427535,2020-03-17 13:18:14:197
11.774684,14.135366,0.114922,8.0,49.826015,24.034937,327.0,NaN,10.44,2.5,325.0,21 / 26,428035,2020-03-17 13:18:14:697
-5.990292,5.655105,-0.785298,8.0,49.826015,24.034937,327.0,NaN,10.44,2.5,325.0,21 / 26,428535,2020-03-17 13:18:15:197
6.617574,-8.872911,-9.375694,8.0,49.826015,24.034937,327.0,NaN,10.44,2.5,325.0,19 / 27,429035,2020-03-17 13:18:15:697
15.2367,28.055256,12.014104,8.0,49.826015,24.034937,327.0,NaN,10.44,2.5,325.0,19 / 27,429535,2020-03-17 13:18:16:197
9.701305,24.167072,7.862559,8.0,49.826015,24.034937,327.0,NaN,10.44,2.5,325.0,20 / 27,430035,2020-03-17 13:18:16:697
2.240973,-8.049306,1.053449,8.0,49.826015,24.034937,327.0,NaN,10.44,2.5,325.0,20 / 27,430536,2020-03-17 13:18:17:198
-5.899313,7.752425,4.735731,8.0,49.826015,24.034937,327.0,NaN,10.44,2.5,325.0,22 / 25,431035,2020-03-17 13:18:17:697
-1.412579,12.349293,-3.442862,8.0,49.826015,24.034937,327.0,NaN,10.44,2.5,325.0,22 / 25,431535,2020-03-17 13:18:18:197
8.825027,-11.252748,-1.580173,8.0,49.826015,24.034937,327.0,NaN,10.44,2.5,325.0,20 / 27,432035,2020-03-17 13:18:18:697
1.575385,10.611102,6.359,8.0,49.826015,24.034937,327.0,NaN,10.44,2.5,325.0,20 / 27,432535,2020-03-17 13:18:19:197
28.323406,31.15814,1.594538,8.0,49.826015,24.034937,327.0,NaN,10.44,2.5,325.0,20 / 26,433036,2020-03-17 13:18:19:698
17.803284,6.813898,-0.54109,8.0,49.826015,24.034937,327.0,NaN,10.44,2.5,325.0,20 / 26,433535,2020-03-17 13:18:20:197
-6.392518,6.33027,1.04866,8.0,49.826015,24.034937,327.0,NaN,10.44,2.5,325.0,19 / 25,434035,2020-03-17 13:18:20:697
5.521029,-14.03481,-1.886631,8.0,49.826015,24.034937,327.0,NaN,10.44,2.5,325.0,19 / 25,434536,2020-03-17 13:18:21:198
8.259996,14.585477,9.715671,8.0,49.826015,24.034937,327.0,NaN,10.44,2.5,325.0,20 / 26,435035,2020-03-17 13:18:21:697
-4.707,4.917691,-2.791639,8.0,49.826015,24.034937,327.0,NaN,10.44,2.5,325.0,20 / 26,435535,2020-03-17 13:18:22:197
3.122039,-9.442732,-4.865018,8.0,49.826015,24.034937,327.0,NaN,10.44,2.5,325.0,21 / 26,436035,2020-03-17 13:18:22:697
3.529053,16.634912,5.980716,8.0,49.826015,24.034937,327.0,NaN,10.44,2.5,325.0,21 / 26,436535,2020-03-17 13:18:23:197
7.182606,23.606829,8.690952,8.0,49.826015,24.034937,327.0,NaN,10.44,2.5,325.0,20 / 26,437035,2020-03-17 13:18:23:697
2.427721,0.172383,-2.384625,8.0,49.826015,24.034937,327.0,NaN,10.44,2.5,325.0,20 / 26,437536,2020-03-17 13:18:24:198
-4.046201,3.931279,3.011906,8.0,49.826015,24.034937,327.0,NaN,10.44,2.5,325.0,19 / 25,438035,2020-03-17 13:18:24:697
9.983821,0.957681,-2.03986,8.0,49.826015,24.034937,327.0,NaN,10.44,2.5,325.0,19 / 25,438535,2020-03-17 13:18:25:197
16.79772,22.117636,-1.522712,8.0,49.826015,24.034937,327.0,NaN,10.44,2.5,325.0,24 / 27,439036,2020-03-17 13:18:25:698
-0.565032,8.346188,0.981623,8.0,49.826015,24.034937,327.0,NaN,10.44,2.5,325.0,24 / 27,439535,2020-03-17 13:18:26:197
8.968679,6.339846,-4.486734,8.0,49.826015,24.034937,327.0,NaN,10.44,2.5,325.0,20 / 27,440035,2020-03-17 13:18:26:697
12.74673,19.383457,15.131354,8.0,49.826015,24.034937,327.0,NaN,10.44,2.5,325.0,20 / 27,440536,2020-03-17 13:18:27:198
-4.55856,9.619903,1.326388,8.0,49.826015,24.034937,327.0,NaN,10.44,2.5,325.0,22 / 27,441035,2020-03-17 13:18:27:697
6.66067,-10.67814,-1.972822,8.0,49.826015,24.034937,327.0,NaN,10.44,2.5,325.0,22 / 27,441535,2020-03-17 13:18:28:197
4.084508,12.23437,3.064578,8.0,49.826015,24.034937,327.0,NaN,10.44,2.5,325.0,22 / 27,442035,2020-03-17 13:18:28:697
21.44247,31.196447,11.281479,8.0,49.826015,24.034937,327.0,NaN,10.44,2.5,325.0,22 / 27,442536,2020-03-17 13:18:29:198
6.349423,2.796428,-2.226607,8.0,49.826015,24.034937,327.0,NaN,10.44,2.5,325.0,22 / 26,443035,2020-03-17 13:18:29:697
21.935677,30.645782,18.200722,8.0,49.826015,24.034937,327.0,NaN,10.44,2.5,325.0,22 / 26,443535,2020-03-17 13:18:30:197
8.480263,22.309172,0.292093,8.0,49.826015,24.034937,327.0,NaN,10.44,2.5,325.0,19 / 26,444036,2020-03-17 13:18:30:698
4.548983,-4.218583,-1.537077,8.0,49.826015,24.034937,327.0,NaN,10.44,2.5,325.0,19 / 26,444535,2020-03-17 13:18:31:197
-1.312023,8.044518,3.236961,8.0,49.826015,24.034937,327.0,NaN,10.44,2.5,325.0,21 / 27,445036,2020-03-17 13:18:31:698
7.85777,0.593762,-4.386177,8.0,49.826015,24.034937,327.0,NaN,10.44,2.5,325.0,21 / 27,445535,2020-03-17 13:18:32:197
20.254946,26.388891,4.122815,8.0,49.826015,24.034937,327.0,NaN,10.44,2.5,325.0,23 / 27,446035,2020-03-17 13:18:32:697
2.37026,13.910312,-2.015918,8.0,49.826015,24.034937,327.0,NaN,10.44,2.5,325.0,23 / 27,446535,2020-03-17 13:18:33:197
1.268927,-8.001422,-2.863465,8.0,49.826015,24.034937,327.0,NaN,10.44,2.5,325.0,23 / 27,447035,2020-03-17 13:18:33:697
26.06328,21.969194,5.449203,8.0,49.826015,24.034937,327.0,NaN,10.44,2.5,325.0,23 / 27,447535,2020-03-17 13:18:34:197
-3.792415,10.697293,-1.814805,8.0,49.826015,24.034937,327.0,NaN,10.44,2.5,325.0,24 / 26,448036,2020-03-17 13:18:34:698
6.105214,-10.290278,-2.504335,8.0,49.826015,24.034937,327.0,NaN,10.44,2.5,325.0,24 / 26,448535,2020-03-17 13:18:35:197
-0.833182,10.510546,1.742979,8.0,49.826015,24.034937,327.0,NaN,10.44,2.5,325.0,24 / 26,449035,2020-03-17 13:18:35:697
9.892841,16.318878,-6.617573,8.0,49.826015,24.034937,327.0,NaN,10.44,2.5,325.0,24 / 26,449536,2020-03-17 13:18:36:198
10.740389,15.346833,0.220267,8.0,49.826015,24.034937,327.0,NaN,10.44,2.5,325.0,24 / 26,450035,2020-03-17 13:18:36:697
-2.964022,7.460333,-2.140416,8.0,49.826015,24.034937,327.0,NaN,10.44,2.5,325.0,24 / 26,450535,2020-03-17 13:18:37:197
9.078813,-12.574347,-4.635174,8.0,49.826015,24.034937,327.0,NaN,10.44,2.5,325.0,24 / 26,451035,2020-03-17 13:18:37:697
9.131485,-0.790087,-8.068459,8.0,49.826015,24.034937,327.0,NaN,10.44,2.5,325.0,24 / 26,451535,2020-03-17 13:18:38:197
-2.920926,8.470686,5.391742,8.0,49.826015,24.034937,327.0,NaN,10.44,2.5,325.0,23 / 26,452036,2020-03-17 13:18:38:698
10.180145,-0.296881,-3.581726,8.0,49.826015,24.034937,327.0,NaN,10.44,2.5,325.0,23 / 26,452535,2020-03-17 13:18:39:197
21.32276,31.095892,13.79539,8.0,49.826015,24.034937,327.0,NaN,10.44,2.5,325.0,24 / 25,453035,2020-03-17 13:18:39:697
5.003882,21.255722,6.871359,8.0,49.826015,24.034937,327.0,NaN,10.44,2.5,325.0,24 / 25,453536,2020-03-17 13:18:40:198
4.750097,-7.048529,0.100556,8.0,49.826015,24.034937,327.0,NaN,10.44,2.5,325.0,21 / 25,454035,2020-03-17 13:18:40:697
-1.197101,6.866571,-0.670376,8.0,49.826015,24.034937,327.0,NaN,10.44,2.5,325.0,21 / 25,454535,2020-03-17 13:18:41:197
12.880805,-0.713472,-3.145981,8.0,49.826015,24.034937,327.0,NaN,10.44,2.5,325.0,21 / 26,455036,2020-03-17 13:18:41:698
4.127604,-5.621585,-1.40779,8.0,49.826015,24.034937,327.0,NaN,10.44,2.5,325.0,21 / 26,455535,2020-03-17 13:18:42:197
-0.387861,7.254431,4.338294,8.0,49.826015,24.034937,327.0,NaN,10.44,2.5,325.0,24 / 27,456035,2020-03-17 13:18:42:697
11.971008,-1.077391,-2.035071,8.0,49.826015,24.034937,327.0,NaN,10.44,2.5,325.0,24 / 27,456536,2020-03-17 13:18:43:198
23.357832,31.842882,5.233725,8.0,49.826015,24.034937,327.0,NaN,10.44,2.5,325.0,24 / 27,457035,2020-03-17 13:18:43:697
3.576938,18.44493,-1.958457,8.0,49.826015,24.034937,327.0,NaN,10.44,2.5,325.0,24 / 27,457535,2020-03-17 13:18:44:197
4.697424,-8.264784,-6.473921,8.0,49.826015,24.034937,327.0,NaN,10.44,2.5,325.0,23 / 27,458036,2020-03-17 13:18:44:698
-1.570596,6.770803,6.105214,8.0,49.826015,24.034937,327.0,NaN,10.44,2.5,325.0,23 / 27,458535,2020-03-17 13:18:45:197
17.257406,10.060435,-4.994304,8.0,49.826015,24.034937,327.0,NaN,10.44,2.5,325.0,23 / 27,459035,2020-03-17 13:18:45:697
3.835511,-12.607866,-1.254562,8.0,49.826015,24.034937,327.0,NaN,10.44,2.5,325.0,23 / 27,459536,2020-03-17 13:18:46:198
1.412579,6.78038,5.722142,8.0,49.826015,24.034937,327.0,NaN,10.44,2.5,325.0,23 / 27,460035,2020-03-17 13:18:46:697
25.024197,27.284323,-2.94008,8.0,49.826015,24.034937,327.0,NaN,10.44,2.5,325.0,23 / 27,460535,2020-03-17 13:18:47:197
13.905523,9.916783,5.583278,8.0,49.826015,24.034937,327.0,NaN,10.44,2.5,325.0,23 / 27,461035,2020-03-17 13:18:47:697
-3.926491,7.28795,-1.206678,8.0,49.826015,24.034937,327.0,NaN,10.44,2.5,325.0,23 / 27,461535,2020-03-17 13:18:48:197
3.351883,-15.255854,4.328717,8.0,49.826015,24.034937,327.0,NaN,10.44,2.5,325.0,22 / 27,462035,2020-03-17 13:18:48:697
5.645528,14.834474,6.435614,8.0,49.826015,24.034937,327.0,NaN,10.44,2.5,325.0,22 / 27,462536,2020-03-17 13:18:49:198
15.80652,28.33777,7.661446,8.0,49.826015,24.034937,327.0,NaN,10.44,2.5,325.0,22 / 27,463035,2020-03-17 13:18:49:697
1.221043,-9.902418,-2.600103,8.0,49.826015,24.034937,327.0,NaN,10.44,2.5,325.0,22 / 27,463535,2020-03-17 13:18:50:197
0.550666,11.444284,3.347094,8.0,49.826015,24.034937,327.0,NaN,10.44,2.5,325.0,22 / 27,464035,2020-03-17 13:18:50:697
11.860875,22.888569,-1.49877,8.0,49.826015,24.034937,327.0,NaN,10.44,2.5,325.0,22 / 27,464535,2020-03-17 13:18:51:197
13.43626,17.597382,0.263362,8.0,49.826015,24.034937,327.0,NaN,10.44,2.5,325.0,22 / 27,465036,2020-03-17 13:18:51:698
3.174712,16.395493,-2.552219,8.0,49.826015,24.034937,327.0,NaN,10.44,2.5,325.0,22 / 27,465535,2020-03-17 13:18:52:197
1.187524,-10.553641,-4.525041,8.0,49.826015,24.034937,327.0,NaN,10.44,2.5,325.0,23 / 27,466035,2020-03-17 13:18:52:697
-1.61848,7.742849,3.773262,8.0,49.826015,24.034937,327.0,NaN,10.44,2.5,325.0,23 / 27,466535,2020-03-17 13:18:53:197
24.708162,28.572401,-5.300762,8.0,49.826015,24.034937,327.0,NaN,10.44,2.5,325.0,22 / 27,467036,2020-03-17 13:18:53:698
10.007763,-12.540829,-3.53863,8.0,49.826015,24.034937,327.0,NaN,10.44,2.5,325.0,22 / 27,467535,2020-03-17 13:18:54:197
4.635175,14.853627,3.950433,8.0,49.826015,24.034937,327.0,NaN,10.44,2.5,325.0,22 / 27,468035,2020-03-17 13:18:54:697
9.428367,21.605276,-2.403778,8.0,49.826015,24.034937,327.0,NaN,10.44,2.5,325.0,22 / 27,468536,2020-03-17 13:18:55:198
0.42138,-7.16824,-11.894394,8.0,49.826015,24.034937,327.0,NaN,10.44,2.5,325.0,23 / 26,469035,2020-03-17 13:18:55:697
-2.346318,8.106767,7.11078,8.0,49.826015,24.034937,327.0,NaN,10.44,2.5,325.0,23 / 26,469536,2020-03-17 13:18:56:198
19.144037,12.473791,-11.113884,8.0,49.826015,24.034937,327.0,NaN,10.44,2.5,325.0,23 / 26,470035,2020-03-17 13:18:56:697
18.86152,20.106506,6.071696,8.0,49.826015,24.034937,327.0,NaN,10.44,2.5,325.0,23 / 26,470535,2020-03-17 13:18:57:197
1.431733,14.317327,-2.355894,8.0,49.826015,24.034937,327.0,NaN,10.44,2.5,325.0,21 / 26,471035,2020-03-17 13:18:57:697
13.718776,9.907207,-2.030283,8.0,49.826015,24.034937,327.0,NaN,10.44,2.5,325.0,21 / 26,471535,2020-03-17 13:18:58:197
9.466674,19.713858,3.96001,8.0,49.826015,24.034937,327.0,NaN,10.44,2.5,325.0,22 / 27,472036,2020-03-17 13:18:58:698
-1.335964,8.030153,2.834735,8.0,49.826015,24.034937,327.0,NaN,10.44,2.5,325.0,22 / 27,472535,2020-03-17 13:18:59:197
3.763685,-11.540052,-1.608903,8.0,49.826015,24.034937,327.0,NaN,10.44,2.5,325.0,22 / 27,473035,2020-03-17 13:18:59:697
4.817134,10.04607,5.889736,8.0,49.826015,24.034937,327.0,NaN,10.44,2.5,325.0,22 / 27,473536,2020-03-17 13:19:00:198
19.919758,29.20926,3.342306,8.0,49.826015,24.034937,327.0,NaN,10.44,2.5,325.0,23 / 27,474035,2020-03-17 13:19:00:697
5.559336,1.192313,-4.271256,8.0,49.826015,24.034937,327.0,NaN,10.44,2.5,325.0,23 / 27,474536,2020-03-17 13:19:01:198
-4.242525,5.176265,3.663129,8.0,49.826374,24.033426,320.0,NaN,7.74,3.0,250.8,22 / 27,475035,2020-03-17 13:19:01:697
7.656657,21.495142,4.850653,8.0,49.826374,24.033426,320.0,NaN,7.74,3.0,250.8,22 / 27,475535,2020-03-17 13:19:02:197
7.11078,4.625598,-2.614468,8.0,49.826374,24.033426,320.0,NaN,7.74,3.0,250.8,21 / 27,476035,2020-03-17 13:19:02:697
-5.497087,4.43885,4.472369,8.0,49.826374,24.033426,320.0,NaN,7.74,3.0,250.8,21 / 27,476535,2020-03-17 13:19:03:197
3.835511,-7.182605,-1.637634,8.0,49.826374,24.033426,320.0,NaN,7.74,3.0,250.8,21 / 27,477036,2020-03-17 13:19:03:698
1.61848,20.829556,3.026271,8.0,49.826374,24.033426,320.0,NaN,7.74,3.0,250.8,21 / 27,477535,2020-03-17 13:19:04:197
12.23437,22.361843,9.662998,8.0,49.826374,24.033426,320.0,NaN,7.74,3.0,250.8,22 / 27,478035,2020-03-17 13:19:04:697
3.069367,-5.664681,-4.630386,8.0,49.826374,24.033426,320.0,NaN,7.74,3.0,250.8,22 / 27,478536,2020-03-17 13:19:05:198
-3.543418,3.682282,5.453992,8.0,49.826374,24.033426,320.0,NaN,7.74,3.0,250.8,22 / 27,479035,2020-03-17 13:19:05:697
3.835511,17.070658,-0.205901,8.0,49.826374,24.033426,320.0,NaN,7.74,3.0,250.8,22 / 27,479536,2020-03-17 13:19:06:198
0.550666,-4.730942,-8.762778,8.0,49.826374,24.033426,320.0,NaN,7.74,3.0,250.8,22 / 27,480035,2020-03-17 13:19:06:697
4.548983,10.505757,1.910573,8.0,49.826374,24.033426,320.0,NaN,7.74,3.0,250.8,22 / 27,480535,2020-03-17 13:19:07:197
21.11207,22.907722,8.312668,8.0,49.826374,24.033426,320.0,NaN,7.74,3.0,250.8,22 / 27,481035,2020-03-17 13:19:07:697
9.255983,16.82166,1.747767,8.0,49.826374,24.033426,320.0,NaN,7.74,3.0,250.8,22 / 27,481535,2020-03-17 13:19:08:197
-1.719037,8.504205,0.555455,8.0,49.826374,24.033426,320.0,NaN,7.74,3.0,250.8,23 / 27,482036,2020-03-17 13:19:08:698
6.368577,-14.030022,2.059013,8.0,49.826374,24.033426,320.0,NaN,7.74,3.0,250.8,23 / 27,482535,2020-03-17 13:19:09:197
11.190498,11.291056,2.485181,8.0,49.826374,24.033426,320.0,NaN,7.74,3.0,250.8,22 / 27,483035,2020-03-17 13:19:09:697
32.72395,32.96816,-3.835511,8.0,49.826374,24.033426,320.0,NaN,7.74,3.0,250.8,22 / 27,483535,2020-03-17 13:19:10:197
3.131616,1.450886,-2.671929,8.0,49.826374,24.033426,320.0,NaN,7.74,3.0,250.8,22 / 27,484035,2020-03-17 13:19:10:697
-1.613692,18.26297,-2.911349,8.0,49.826374,24.033426,320.0,NaN,7.74,3.0,250.8,22 / 27,484535,2020-03-17 13:19:11:197
6.80911,23.18545,-2.087744,8.0,49.826374,24.033426,320.0,NaN,7.74,3.0,250.8,23 / 27,485035,2020-03-17 13:19:11:697
-1.58975,-3.007117,-0.617704,8.0,49.826374,24.033426,320.0,NaN,7.74,3.0,250.8,23 / 27,485535,2020-03-17 13:19:12:197
0.09098,10.103531,0.588974,8.0,49.826374,24.033426,320.0,NaN,7.74,3.0,250.8,21 / 27,486035,2020-03-17 13:19:12:697
6.943185,-5.085284,-3.438074,8.0,49.826374,24.033426,320.0,NaN,7.74,3.0,250.8,21 / 27,486535,2020-03-17 13:19:13:197
3.131616,20.69069,1.56102,8.0,49.826374,24.033426,320.0,NaN,7.74,3.0,250.8,21 / 27,487035,2020-03-17 13:19:13:697
17.3005,29.822176,0.627281,8.0,49.826374,24.033426,320.0,NaN,7.74,3.0,250.8,21 / 27,487535,2020-03-17 13:19:14:197
-4.510676,0.517148,-5.602432,8.0,49.826374,24.033426,320.0,NaN,7.74,3.0,250.8,21 / 28,488036,2020-03-17 13:19:14:698
-1.16837,10.108319,1.158794,8.0,49.826374,24.033426,320.0,NaN,7.74,3.0,250.8,21 / 28,488535,2020-03-17 13:19:15:197
16.682798,21.811178,0.924162,8.0,49.826374,24.033426,320.0,NaN,7.74,3.0,250.8,24 / 28,489035,2020-03-17 13:19:15:697
-0.679953,2.331953,-5.511452,8.0,49.826374,24.033426,320.0,NaN,7.74,3.0,250.8,24 / 28,489535,2020-03-17 13:19:16:197
-1.374272,7.005434,-0.967257,8.0,49.826374,24.033426,320.0,NaN,7.74,3.0,250.8,22 / 28,490035,2020-03-17 13:19:16:697
4.084508,-9.940725,-2.906561,8.0,49.826374,24.033426,320.0,NaN,7.74,3.0,250.8,22 / 28,490536,2020-03-17 13:19:17:198
2.126051,16.390705,6.224925,8.0,49.826374,24.033426,320.0,NaN,7.74,3.0,250.8,22 / 28,491035,2020-03-17 13:19:17:697
6.373365,20.69548,-4.094085,8.0,49.826374,24.033426,320.0,NaN,7.74,3.0,250.8,22 / 28,491535,2020-03-17 13:19:18:197
2.60968,-3.816357,-5.114014,8.0,49.826374,24.033426,320.0,NaN,7.74,3.0,250.8,22 / 28,492036,2020-03-17 13:19:18:698
15.193604,16.879122,4.898537,8.0,49.826374,24.033426,320.0,NaN,7.74,3.0,250.8,22 / 28,492535,2020-03-17 13:19:19:197
1.173159,13.196839,1.781286,8.0,49.826374,24.033426,320.0,NaN,7.74,3.0,250.8,22 / 28,493035,2020-03-17 13:19:19:697
2.504335,-9.950302,-2.130839,8.0,49.826374,24.033426,320.0,NaN,7.74,3.0,250.8,22 / 28,493535,2020-03-17 13:19:20:197
6.698977,9.332599,2.523489,8.0,49.826374,24.033426,320.0,NaN,7.74,3.0,250.8,22 / 28,494035,2020-03-17 13:19:20:697
24.847025,26.719292,0.086191,8.0,49.826374,24.033426,320.0,NaN,7.74,3.0,250.8,22 / 28,494535,2020-03-17 13:19:21:197
6.766014,6.526594,-6.26802,8.0,49.826374,24.033426,320.0,NaN,7.74,3.0,250.8,21 / 28,495035,2020-03-17 13:19:21:697
-4.472368,7.503428,1.264139,8.0,49.826374,24.033426,320.0,NaN,7.74,3.0,250.8,21 / 28,495535,2020-03-17 13:19:22:197
5.200207,-8.42759,0.162806,8.0,49.826374,24.033426,320.0,NaN,7.74,3.0,250.8,22 / 28,496036,2020-03-17 13:19:22:698
6.612785,3.811569,3.174712,8.0,49.826374,24.033426,320.0,NaN,7.74,3.0,250.8,22 / 28,496535,2020-03-17 13:19:23:197
-3.026271,4.276045,-0.488417,8.0,49.826374,24.033426,320.0,NaN,7.74,3.0,250.8,23 / 28,497035,2020-03-17 13:19:23:697
7.800309,-6.924031,0.129287,8.0,49.826374,24.033426,320.0,NaN,7.74,3.0,250.8,23 / 28,497535,2020-03-17 13:19:24:197
12.550406,21.08334,17.78413,8.0,49.826374,24.033426,320.0,NaN,7.74,3.0,250.8,22 / 27,498035,2020-03-17 13:19:24:697
4.491523,16.883911,2.628834,8.0,49.826374,24.033426,320.0,NaN,7.74,3.0,250.8,22 / 27,498535,2020-03-17 13:19:25:197
4.328717,-6.105214,-4.189853,8.0,49.826374,24.033426,320.0,NaN,7.74,3.0,250.8,22 / 26,499036,2020-03-17 13:19:25:698
-1.877054,5.353435,4.587291,8.0,49.826374,24.033426,320.0,NaN,7.74,3.0,250.8,22 / 26,499535,2020-03-17 13:19:26:197
9.902418,13.311762,-9.643845,8.0,49.826374,24.033426,320.0,NaN,7.74,3.0,250.8,21 / 27,500035,2020-03-17 13:19:26:697
3.955221,-8.173804,-3.960009,8.0,49.826374,24.033426,320.0,NaN,7.74,3.0,250.8,21 / 27,500535,2020-03-17 13:19:27:197
0.967258,5.659893,1.47004,8.0,49.826374,24.033426,320.0,NaN,7.74,3.0,250.8,21 / 28,501036,2020-03-17 13:19:27:698
15.547946,12.363658,-3.519476,8.0,49.826374,24.033426,320.0,NaN,7.74,3.0,250.8,21 / 28,501535,2020-03-17 13:19:28:197
20.93011,23.060951,14.03481,8.0,49.826374,24.033426,320.0,NaN,7.74,3.0,250.8,21 / 28,502035,2020-03-17 13:19:28:697
-1.206678,10.845734,-1.043872,8.0,49.826374,24.033426,320.0,NaN,7.74,3.0,250.8,21 / 28,502535,2020-03-17 13:19:29:197
4.055778,-6.856993,-0.933739,8.0,49.826374,24.033426,320.0,NaN,7.74,3.0,250.8,20 / 28,503035,2020-03-17 13:19:29:697
-0.986411,6.80911,4.568137,8.0,49.826374,24.033426,320.0,NaN,7.74,3.0,250.8,20 / 28,503535,2020-03-17 13:19:30:197
24.076092,22.49113,3.064578,8.0,49.826374,24.033426,320.0,NaN,7.74,3.0,250.8,21 / 28,504035,2020-03-17 13:19:30:697
3.653552,-8.394072,-0.392649,8.0,49.826374,24.033426,320.0,NaN,7.74,3.0,250.8,21 / 28,504535,2020-03-17 13:19:31:197
1.781286,11.372458,1.896208,8.0,49.826374,24.033426,320.0,NaN,7.74,3.0,250.8,23 / 28,505036,2020-03-17 13:19:31:698
25.900475,24.574087,8.681376,8.0,49.826374,24.033426,320.0,NaN,7.74,3.0,250.8,23 / 28,505535,2020-03-17 13:19:32:197
10.745177,9.437943,-1.278504,8.0,49.826374,24.033426,320.0,NaN,7.74,3.0,250.8,21 / 28,506035,2020-03-17 13:19:32:697
-1.728614,7.675811,0.627281,8.0,49.826374,24.033426,320.0,NaN,7.74,3.0,250.8,21 / 28,506535,2020-03-17 13:19:33:197
6.517017,-7.963114,-0.933739,8.0,49.826374,24.033426,320.0,NaN,7.74,3.0,250.8,22 / 28,507035,2020-03-17 13:19:33:697
6.6894,13.129802,2.935291,8.0,49.826374,24.033426,320.0,NaN,7.74,3.0,250.8,22 / 28,507535,2020-03-17 13:19:34:197
22.34269,12.306197,15.270219,8.0,49.826374,24.033426,320.0,NaN,7.74,3.0,250.8,23 / 28,508035,2020-03-17 13:19:34:697
7.637504,3.672706,2.264915,8.0,49.826374,24.033426,320.0,NaN,7.74,3.0,250.8,23 / 28,508535,2020-03-17 13:19:35:197
-0.081403,5.985504,4.754885,8.0,49.826374,24.033426,320.0,NaN,7.74,3.0,250.8,21 / 29,509036,2020-03-17 13:19:35:698
5.602432,6.579266,15.303738,8.0,49.826374,24.033426,320.0,NaN,7.74,3.0,250.8,21 / 29,509535,2020-03-17 13:19:36:197
3.126828,6.861782,10.103531,8.0,49.826374,24.033426,320.0,NaN,7.74,3.0,250.8,21 / 28,510036,2020-03-17 13:19:36:698
-0.995988,4.256891,5.252879,8.0,49.826374,24.033426,320.0,NaN,7.74,3.0,250.8,21 / 28,510535,2020-03-17 13:19:37:197
4.917691,1.043872,6.646304,8.0,49.826374,24.033426,320.0,NaN,7.74,3.0,250.8,23 / 28,511036,2020-03-17 13:19:37:698
-0.651223,4.702213,5.329493,8.0,49.826374,24.033426,320.0,NaN,7.74,3.0,250.8,23 / 28,511535,2020-03-17 13:19:38:197
5.511452,7.321469,9.064447,8.0,49.826374,24.033426,320.0,NaN,7.74,3.0,250.8,24 / 28,512036,2020-03-17 13:19:38:698
