ACCELEROMETER X (m/s²),ACCELEROMETER Y (m/s²),ACCELEROMETER Z (m/s²),PROXIMITY (m),LOCATION Latitude : ,LOCATION Longitude : ,LOCATION Altitude ( m),LOCATION Altitude-google ( m),LOCATION Speed ( Kmh),LOCATION Accuracy ( m),LOCATION ORIENTATION (°),Satellites in range,Time since start in ms ,YYYY-MO-DD HH-MI-SS_SSS
1.134852,6.56969,7.694965,8.0,49.8286,24.04625,346.0,NaN,3.492,14.5,174.4,13 / 16,27,2020-03-11 20:23:16:854
3.921703,2.360683,19.862297,8.0,49.8286,24.04625,346.0,NaN,3.492,14.5,174.4,13 / 16,527,2020-03-11 20:23:17:354
0.071826,3.682282,10.390836,8.0,49.8286,24.04625,346.0,NaN,3.492,14.5,174.4,14 / 16,1026,2020-03-11 20:23:17:853
-1.80044,4.252103,9.150639,8.0,49.8286,24.04625,346.0,NaN,3.492,14.5,174.4,14 / 16,1526,2020-03-11 20:23:18:353
12.670115,5.075708,4.252103,8.0,49.8286,24.04625,346.0,NaN,3.492,14.5,174.4,14 / 16,2026,2020-03-11 20:23:18:853
14.537593,9.792285,8.006211,8.0,49.8286,24.04625,346.0,NaN,3.492,14.5,174.4,14 / 16,2526,2020-03-11 20:23:19:353
0.612916,12.847286,7.503428,8.0,49.8286,24.04625,346.0,NaN,3.492,14.5,174.4,15 / 15,3026,2020-03-11 20:23:19:853
2.839523,-0.588974,-4.261679,8.0,49.8286,24.04625,346.0,NaN,3.492,14.5,174.4,15 / 15,3526,2020-03-11 20:23:20:353
2.738967,3.878607,5.295975,8.0,49.8286,24.04625,346.0,NaN,3.492,14.5,174.4,14 / 16,4026,2020-03-11 20:23:20:853
1.039084,3.055001,6.842629,8.0,49.8286,24.04625,346.0,NaN,3.492,14.5,174.4,14 / 16,4526,2020-03-11 20:23:21:353
2.801216,9.720459,11.81778,8.0,49.8286,24.04625,346.0,NaN,3.492,14.5,174.4,13 / 16,5026,2020-03-11 20:23:21:853
-2.829946,5.267244,11.027693,8.0,49.8286,24.04625,346.0,NaN,3.492,14.5,174.4,13 / 16,5526,2020-03-11 20:23:22:353
7.517793,-0.636858,3.452439,8.0,49.8286,24.04625,346.0,NaN,3.492,14.5,174.4,13 / 16,6026,2020-03-11 20:23:22:853
12.138602,6.272809,12.770672,8.0,49.8286,24.04625,346.0,NaN,3.492,14.5,174.4,13 / 16,6526,2020-03-11 20:23:23:353
-0.47884,5.702989,11.200075,8.0,49.8286,24.04625,346.0,NaN,3.492,14.5,174.4,13 / 16,7026,2020-03-11 20:23:23:853
1.154005,4.525041,4.462792,0.0,49.8286,24.04625,346.0,NaN,3.492,14.5,174.4,13 / 16,7526,2020-03-11 20:23:24:353
-3.323152,1.489194,8.5473,8.0,49.8286,24.04625,346.0,NaN,3.492,14.5,174.4,14 / 17,8026,2020-03-11 20:23:24:853
0.972046,3.773262,0.076614,8.0,49.8286,24.04625,346.0,NaN,3.492,14.5,174.4,14 / 17,8527,2020-03-11 20:23:25:354
-6.157887,8.892065,8.585608,8.0,49.8286,24.04625,346.0,NaN,3.492,14.5,174.4,13 / 17,9026,2020-03-11 20:23:25:853
-3.639186,2.121263,12.243947,8.0,49.8286,24.04625,346.0,NaN,3.492,14.5,174.4,13 / 17,9526,2020-03-11 20:23:26:353
7.920019,0.344765,7.958327,8.0,49.8286,24.04625,346.0,NaN,3.492,14.5,174.4,13 / 17,10027,2020-03-11 20:23:26:854
6.368577,3.490746,4.86023,8.0,49.8286,24.04625,346.0,NaN,3.492,14.5,174.4,13 / 17,10526,2020-03-11 20:23:27:353
8.441956,11.51611,2.571373,8.0,49.8286,24.04625,346.0,NaN,3.492,14.5,174.4,13 / 17,11026,2020-03-11 20:23:27:853
-3.074155,-9.270349,-2.035071,8.0,49.8286,24.04625,346.0,NaN,3.492,14.5,174.4,13 / 17,11527,2020-03-11 20:23:28:354
3.77805,11.463438,2.8491,8.0,49.8286,24.04625,346.0,NaN,3.492,14.5,174.4,13 / 17,12026,2020-03-11 20:23:28:853
17.611748,11.784261,-6.224924,8.0,49.8286,24.04625,346.0,NaN,3.492,14.5,174.4,13 / 17,12526,2020-03-11 20:23:29:353
18.59337,20.441694,-4.941632,8.0,49.8286,24.04625,346.0,NaN,3.492,14.5,174.4,11 / 17,13026,2020-03-11 20:23:29:853
8.044518,17.324444,7.987057,8.0,49.8286,24.04625,346.0,NaN,3.492,14.5,174.4,11 / 17,13527,2020-03-11 20:23:30:354
8.298303,-2.533065,4.07972,8.0,49.8286,24.04625,346.0,NaN,3.492,14.5,174.4,14 / 17,14026,2020-03-11 20:23:30:853
0.392649,22.754494,4.759673,8.0,49.8286,24.04625,346.0,NaN,3.492,14.5,174.4,14 / 17,14526,2020-03-11 20:23:31:353
5.583278,20.781672,6.473922,8.0,49.8286,24.04625,346.0,NaN,3.492,14.5,174.4,13 / 17,15027,2020-03-11 20:23:31:854
-1.144428,-3.466804,-5.070919,8.0,49.8286,24.04625,346.0,NaN,3.492,14.5,174.4,13 / 17,15526,2020-03-11 20:23:32:353
-1.13964,3.284845,3.691859,8.0,49.8286,24.04625,346.0,NaN,3.492,14.5,174.4,16 / 18,16027,2020-03-11 20:23:32:854
24.454376,10.01734,2.39899,8.0,49.8286,24.04625,346.0,NaN,3.492,14.5,174.4,16 / 18,16526,2020-03-11 20:23:33:353
32.225956,28.596346,8.892065,8.0,49.8286,24.04625,346.0,NaN,3.492,14.5,174.4,16 / 18,17026,2020-03-11 20:23:33:853
-2.221819,8.317456,-1.819593,8.0,49.8286,24.04625,346.0,NaN,3.492,14.5,174.4,16 / 18,17526,2020-03-11 20:23:34:353
36.478058,34.46214,1.805228,8.0,49.8286,24.04625,346.0,NaN,3.492,14.5,174.4,17 / 18,18026,2020-03-11 20:23:34:853
-5.659893,7.283162,7.326257,8.0,49.8286,24.04625,346.0,NaN,3.492,14.5,174.4,17 / 18,18526,2020-03-11 20:23:35:353
1.316811,16.505627,0.45011,8.0,49.8286,24.04625,346.0,NaN,3.492,14.5,174.4,14 / 18,19026,2020-03-11 20:23:35:853
1.398214,-8.738836,-3.711012,8.0,49.8286,24.04625,346.0,NaN,3.492,14.5,174.4,14 / 18,19526,2020-03-11 20:23:36:353
-0.68953,7.580043,7.393295,8.0,49.8286,24.04625,346.0,NaN,3.492,14.5,174.4,14 / 17,20027,2020-03-11 20:23:36:854
-3.169923,7.192182,-1.235408,8.0,49.8286,24.04625,346.0,NaN,3.492,14.5,174.4,14 / 17,20527,2020-03-11 20:23:37:354
0.847547,-11.540052,-5.358223,8.0,49.8286,24.04625,346.0,NaN,3.492,14.5,174.4,15 / 18,21027,2020-03-11 20:23:37:854
6.454768,14.403518,4.357447,8.0,49.8286,24.04625,346.0,NaN,3.492,14.5,174.4,15 / 18,21526,2020-03-11 20:23:38:353
12.373235,23.44881,6.143522,8.0,49.8286,24.04625,346.0,NaN,3.492,14.5,174.4,15 / 18,22026,2020-03-11 20:23:38:853
3.375825,-0.684742,-2.494758,8.0,49.8286,24.04625,346.0,NaN,3.492,14.5,174.4,15 / 18,22526,2020-03-11 20:23:39:353
-4.999093,6.521806,5.319916,8.0,49.8286,24.04625,346.0,NaN,3.492,14.5,174.4,17 / 19,23026,2020-03-11 20:23:39:853
19.029116,3.375825,-1.810016,8.0,49.8286,24.04625,346.0,NaN,3.492,14.5,174.4,17 / 19,23527,2020-03-11 20:23:40:354
28.356924,27.638664,9.44752,8.0,49.8286,24.04625,346.0,NaN,3.492,14.5,174.4,15 / 19,24026,2020-03-11 20:23:40:853
-4.520252,5.114015,7.297527,8.0,49.8286,24.04625,346.0,NaN,3.492,14.5,174.4,15 / 19,24526,2020-03-11 20:23:41:353
16.184803,11.03727,-4.76925,8.0,49.8286,24.04625,346.0,NaN,3.492,14.5,174.4,17 / 19,25026,2020-03-11 20:23:41:853
17.176003,15.80652,0.732626,8.0,49.8286,24.04625,346.0,NaN,3.492,14.5,174.4,17 / 19,25527,2020-03-11 20:23:42:354
-4.620809,9.179369,-0.100556,8.0,49.8286,24.04625,346.0,NaN,3.492,14.5,174.4,14 / 19,26026,2020-03-11 20:23:42:853
3.5099,-15.126566,-0.574608,8.0,49.8286,24.04625,346.0,NaN,3.492,14.5,174.4,14 / 19,26526,2020-03-11 20:23:43:353
12.813767,23.625982,7.211336,8.0,49.8286,24.04625,346.0,NaN,3.492,14.5,174.4,15 / 19,27026,2020-03-11 20:23:43:853
5.406108,20.819979,1.623269,8.0,49.8286,24.04625,346.0,NaN,3.492,14.5,174.4,15 / 19,27526,2020-03-11 20:23:44:353
-0.052672,-3.605668,-5.181052,8.0,49.8286,24.04625,346.0,NaN,3.492,14.5,174.4,16 / 19,28026,2020-03-11 20:23:44:853
21.193474,27.241226,4.941633,8.0,49.8286,24.04625,346.0,NaN,3.492,14.5,174.4,16 / 19,28526,2020-03-11 20:23:45:353
3.739743,16.266207,-3.002329,8.0,49.8286,24.04625,346.0,NaN,3.492,14.5,174.4,15 / 19,29027,2020-03-11 20:23:45:854
1.091756,-7.675811,-6.698976,8.0,49.8286,24.04625,346.0,NaN,3.492,14.5,174.4,15 / 19,29527,2020-03-11 20:23:46:354
-4.089296,5.21936,2.60968,8.0,49.8286,24.04625,346.0,NaN,3.492,14.5,174.4,15 / 19,30026,2020-03-11 20:23:46:853
19.752165,10.860099,-3.902549,8.0,49.8286,24.04625,346.0,NaN,3.492,14.5,174.4,15 / 19,30527,2020-03-11 20:23:47:354
15.26543,7.532159,-7.024587,8.0,49.8286,24.04625,346.0,NaN,3.492,14.5,174.4,16 / 19,31026,2020-03-11 20:23:47:853
-4.635174,7.469909,0.234632,8.0,49.8286,24.04625,346.0,NaN,3.492,14.5,174.4,16 / 19,31526,2020-03-11 20:23:48:353
-1.704672,-16.7642,-1.455675,8.0,49.8286,24.04625,346.0,NaN,3.492,14.5,174.4,16 / 19,32026,2020-03-11 20:23:48:853
2.264915,-6.641515,-3.643975,8.0,49.8286,24.04625,346.0,NaN,3.492,14.5,174.4,16 / 19,32526,2020-03-11 20:23:49:353
-0.545878,7.97748,5.013459,8.0,49.8286,24.04625,346.0,NaN,3.492,14.5,174.4,16 / 20,33026,2020-03-11 20:23:49:853
15.44739,0.521936,-0.593762,8.0,49.8286,24.04625,346.0,NaN,3.492,14.5,174.4,16 / 20,33526,2020-03-11 20:23:50:353
29.66416,23.970745,-0.282516,8.0,49.8286,24.04625,346.0,NaN,3.492,14.5,174.4,17 / 20,34026,2020-03-11 20:23:50:853
1.642422,13.498509,2.494758,8.0,49.8286,24.04625,346.0,NaN,3.492,14.5,174.4,17 / 20,34526,2020-03-11 20:23:51:353
1.900996,-12.095507,-6.076483,8.0,49.8286,24.04625,346.0,NaN,3.492,14.5,174.4,15 / 22,35026,2020-03-11 20:23:51:853
-3.86903,5.597644,6.904878,8.0,49.8286,24.04625,346.0,NaN,3.492,14.5,174.4,15 / 22,35526,2020-03-11 20:23:52:353
13.517663,9.782708,-1.584961,8.0,49.8286,24.04625,346.0,NaN,3.492,14.5,174.4,18 / 22,36027,2020-03-11 20:23:52:854
2.815581,-7.891289,-7.354987,8.0,49.8286,24.04625,346.0,NaN,3.492,14.5,174.4,18 / 22,36527,2020-03-11 20:23:53:354
-6.833051,2.705448,6.004658,8.0,49.8286,24.04625,346.0,NaN,3.492,14.5,174.4,17 / 22,37027,2020-03-11 20:23:53:854
15.820885,19.661184,-8.303091,8.0,49.8286,24.04625,346.0,NaN,3.492,14.5,174.4,17 / 22,37526,2020-03-11 20:23:54:353
15.830462,11.760319,1.484405,8.0,49.8286,24.04625,346.0,NaN,3.492,14.5,174.4,17 / 23,38026,2020-03-11 20:23:54:853
-1.671153,8.916007,2.475605,8.0,49.8286,24.04625,346.0,NaN,3.492,14.5,174.4,17 / 23,38526,2020-03-11 20:23:55:353
1.383849,-9.543288,-2.882619,8.0,49.8286,24.04625,346.0,NaN,3.492,14.5,174.4,15 / 23,39026,2020-03-11 20:23:55:853
5.688624,13.230358,7.244855,8.0,49.8286,24.04625,346.0,NaN,3.492,14.5,174.4,15 / 23,39526,2020-03-11 20:23:56:353
18.918982,29.731197,6.545748,8.0,49.8286,24.04625,346.0,NaN,3.492,14.5,174.4,16 / 23,40026,2020-03-11 20:23:56:853
12.224793,-11.200075,-0.905008,8.0,49.8286,24.04625,346.0,NaN,3.492,14.5,174.4,16 / 23,40526,2020-03-11 20:23:57:353
21.988348,24.928429,7.862559,8.0,49.8286,24.04625,346.0,NaN,3.492,14.5,174.4,16 / 23,41026,2020-03-11 20:23:57:853
0.368707,12.071565,-1.786074,8.0,49.8286,24.04625,346.0,NaN,3.492,14.5,174.4,16 / 23,41526,2020-03-11 20:23:58:353
0.708684,-16.836027,-5.023035,8.0,49.8286,24.04625,346.0,NaN,3.492,14.5,174.4,17 / 24,42026,2020-03-11 20:23:58:853
2.221819,9.662998,8.360553,8.0,49.8286,24.04625,346.0,NaN,3.492,14.5,174.4,17 / 24,42526,2020-03-11 20:23:59:353
13.709199,24.645912,10.328587,8.0,49.8286,24.04625,346.0,NaN,3.492,14.5,174.4,18 / 24,43027,2020-03-11 20:23:59:854
2.796428,-2.288857,-1.158794,8.0,49.8286,24.04625,346.0,NaN,3.492,14.5,174.4,18 / 24,43526,2020-03-11 20:24:00:353
-4.338293,9.078813,15.38514,8.0,49.8286,24.04625,346.0,NaN,3.492,14.5,174.4,18 / 24,44026,2020-03-11 20:24:00:853
5.0374,-5.923255,3.026271,8.0,49.8286,24.04625,346.0,NaN,3.492,14.5,174.4,18 / 24,44526,2020-03-11 20:24:01:353
2.762909,-5.482722,-1.987187,8.0,49.8286,24.04625,346.0,NaN,3.492,14.5,174.4,17 / 24,45026,2020-03-11 20:24:01:853
0.3304,5.966351,1.436521,8.0,49.8286,24.04625,346.0,NaN,3.492,14.5,174.4,17 / 24,45526,2020-03-11 20:24:02:353
12.65575,-0.986411,-2.54743,8.0,49.827698,24.046036,340.0,NaN,6.264,2.5,148.5,18 / 24,46026,2020-03-11 20:24:02:853
15.480908,25.368961,6.0286,8.0,49.827698,24.046036,340.0,NaN,6.264,2.5,148.5,18 / 24,46526,2020-03-11 20:24:03:353
7.699753,19.838356,5.482722,8.0,49.827698,24.046036,340.0,NaN,6.264,2.5,148.5,17 / 24,47026,2020-03-11 20:24:03:853
1.752556,-4.256891,-4.750096,8.0,49.827698,24.046036,340.0,NaN,6.264,2.5,148.5,17 / 24,47526,2020-03-11 20:24:04:353
-5.080496,8.259996,4.381389,8.0,49.827698,24.046036,340.0,NaN,6.264,2.5,148.5,17 / 24,48027,2020-03-11 20:24:04:854
12.243947,3.610456,-4.256891,8.0,49.827698,24.046036,340.0,NaN,6.264,2.5,148.5,17 / 24,48526,2020-03-11 20:24:05:353
2.94008,-10.582372,-2.006341,8.0,49.827698,24.046036,340.0,NaN,6.264,2.5,148.5,15 / 24,49026,2020-03-11 20:24:05:853
-4.371812,4.582502,10.232818,8.0,49.827698,24.046036,340.0,NaN,6.264,2.5,148.5,15 / 24,49526,2020-03-11 20:24:06:353
33.001675,26.700138,1.781286,8.0,49.827698,24.046036,340.0,NaN,6.264,2.5,148.5,16 / 24,50026,2020-03-11 20:24:06:853
8.475474,6.526594,1.503559,8.0,49.827698,24.046036,340.0,NaN,6.264,2.5,148.5,16 / 24,50527,2020-03-11 20:24:07:354
0.004788,8.336611,2.231396,8.0,49.827698,24.046036,340.0,NaN,6.264,2.5,148.5,15 / 24,51026,2020-03-11 20:24:07:853
5.506664,-12.291832,-2.37026,8.0,49.827698,24.046036,340.0,NaN,6.264,2.5,148.5,15 / 24,51526,2020-03-11 20:24:08:353
3.433285,8.911219,5.918467,8.0,49.827698,24.046036,340.0,NaN,6.264,2.5,148.5,17 / 23,52026,2020-03-11 20:24:08:853
20.829556,10.769119,1.537078,8.0,49.827698,24.046036,340.0,NaN,6.264,2.5,148.5,17 / 23,52527,2020-03-11 20:24:09:354
2.499547,-8.058882,-10.998962,8.0,49.827698,24.046036,340.0,NaN,6.264,2.5,148.5,17 / 23,53026,2020-03-11 20:24:09:853
-7.809886,9.825804,16.879122,8.0,49.827698,24.046036,340.0,NaN,6.264,2.5,148.5,17 / 23,53526,2020-03-11 20:24:10:353
9.011775,-0.833182,-1.292869,8.0,49.827698,24.046036,340.0,NaN,6.264,2.5,148.5,18 / 23,54026,2020-03-11 20:24:10:853
13.158532,24.827871,9.351752,8.0,49.827698,24.046036,340.0,NaN,6.264,2.5,148.5,18 / 23,54527,2020-03-11 20:24:11:354
8.671799,17.793707,8.384495,8.0,49.827698,24.046036,340.0,NaN,6.264,2.5,148.5,16 / 23,55026,2020-03-11 20:24:11:853
1.92015,-7.388506,-3.222595,8.0,49.827698,24.046036,340.0,NaN,6.264,2.5,148.5,16 / 23,55526,2020-03-11 20:24:12:353
-5.032612,4.1707,7.311892,8.0,49.827698,24.046036,340.0,NaN,6.264,2.5,148.5,18 / 23,56026,2020-03-11 20:24:12:853
24.238897,13.67568,-0.593762,8.0,49.827698,24.046036,340.0,NaN,6.264,2.5,148.5,18 / 23,56526,2020-03-11 20:24:13:353
2.303222,-11.640609,-2.422932,8.0,49.827698,24.046036,340.0,NaN,6.264,2.5,148.5,19 / 23,57026,2020-03-11 20:24:13:853
2.470816,3.854665,5.334282,8.0,49.827698,24.046036,340.0,NaN,6.264,2.5,148.5,19 / 23,57526,2020-03-11 20:24:14:353
18.990808,27.80626,14.015656,8.0,49.827698,24.046036,340.0,NaN,6.264,2.5,148.5,17 / 23,58026,2020-03-11 20:24:14:853
6.694188,9.203311,0.071826,8.0,49.827698,24.046036,340.0,NaN,6.264,2.5,148.5,17 / 23,58526,2020-03-11 20:24:15:353
-3.39019,6.469133,4.836288,8.0,49.827698,24.046036,340.0,NaN,6.264,2.5,148.5,17 / 23,59026,2020-03-11 20:24:15:853
5.382166,-10.01734,2.092532,8.0,49.827698,24.046036,340.0,NaN,6.264,2.5,148.5,17 / 23,59526,2020-03-11 20:24:16:353
9.763555,23.013067,10.840945,8.0,49.827698,24.046036,340.0,NaN,6.264,2.5,148.5,16 / 22,60026,2020-03-11 20:24:16:853
7.302315,21.815966,3.557784,8.0,49.827698,24.046036,340.0,NaN,6.264,2.5,148.5,16 / 22,60527,2020-03-11 20:24:17:354
0.675165,-3.232172,-4.568136,8.0,49.827698,24.046036,340.0,NaN,6.264,2.5,148.5,18 / 22,61026,2020-03-11 20:24:17:853
19.876663,30.65057,-0.263362,8.0,49.827698,24.046036,340.0,NaN,6.264,2.5,148.5,18 / 22,61526,2020-03-11 20:24:18:353
-1.446098,13.005303,1.810017,8.0,49.827698,24.046036,340.0,NaN,6.264,2.5,148.5,18 / 23,62026,2020-03-11 20:24:18:853
3.284845,-7.551312,-1.723825,8.0,49.827698,24.046036,340.0,NaN,6.264,2.5,148.5,18 / 23,62527,2020-03-11 20:24:19:354
-3.193865,4.180277,4.994305,8.0,49.827698,24.046036,340.0,NaN,6.264,2.5,148.5,18 / 23,63026,2020-03-11 20:24:19:853
20.427328,26.475082,-1.776498,8.0,49.827698,24.046036,340.0,NaN,6.264,2.5,148.5,18 / 23,63526,2020-03-11 20:24:20:353
4.845865,10.189722,-1.35033,8.0,49.827698,24.046036,340.0,NaN,6.264,2.5,148.5,16 / 23,64027,2020-03-11 20:24:20:854
-1.742979,6.92882,1.44131,8.0,49.827698,24.046036,340.0,NaN,6.264,2.5,148.5,16 / 23,64526,2020-03-11 20:24:21:353
2.264915,-12.301409,-0.311246,8.0,49.827698,24.046036,340.0,NaN,6.264,2.5,148.5,17 / 24,65026,2020-03-11 20:24:21:853
4.280833,23.745693,16.232687,8.0,49.827698,24.046036,340.0,NaN,6.264,2.5,148.5,17 / 24,65526,2020-03-11 20:24:22:353
7.862559,19.077,6.651093,8.0,49.827698,24.046036,340.0,NaN,6.264,2.5,148.5,17 / 23,66027,2020-03-11 20:24:22:854
16.960526,8.791509,3.53863,8.0,49.827698,24.046036,340.0,NaN,6.264,2.5,148.5,17 / 23,66526,2020-03-11 20:24:23:353
16.79772,20.03468,6.086061,8.0,49.827698,24.046036,340.0,NaN,6.264,2.5,148.5,16 / 24,67026,2020-03-11 20:24:23:853
1.316811,13.64695,1.345541,8.0,49.827698,24.046036,340.0,NaN,6.264,2.5,148.5,16 / 24,67527,2020-03-11 20:24:24:354
0.162806,-11.688493,-4.965574,8.0,49.827698,24.046036,340.0,NaN,6.264,2.5,148.5,18 / 25,68026,2020-03-11 20:24:24:853
-1.240196,7.872135,4.620809,8.0,49.827698,24.046036,340.0,NaN,6.264,2.5,148.5,18 / 25,68526,2020-03-11 20:24:25:353
26.800694,27.471071,1.857901,8.0,49.827698,24.046036,340.0,NaN,6.264,2.5,148.5,18 / 25,69027,2020-03-11 20:24:25:854
9.32781,11.530476,0.742203,8.0,49.827698,24.046036,340.0,NaN,6.264,2.5,148.5,18 / 25,69526,2020-03-11 20:24:26:353
-2.06859,7.575254,-0.043096,8.0,49.827698,24.046036,340.0,NaN,6.264,2.5,148.5,18 / 25,70026,2020-03-11 20:24:26:853
21.193474,17.764977,16.46253,8.0,49.827698,24.046036,340.0,NaN,6.264,2.5,148.5,18 / 25,70526,2020-03-11 20:24:27:353
16.840815,8.039729,9.706094,8.0,49.827698,24.046036,340.0,NaN,6.264,2.5,148.5,17 / 25,71027,2020-03-11 20:24:27:854
-1.996764,8.125921,1.479617,8.0,49.827698,24.046036,340.0,NaN,6.264,2.5,148.5,17 / 25,71526,2020-03-11 20:24:28:353
2.542642,-11.429919,-1.015141,8.0,49.827698,24.046036,340.0,NaN,6.264,2.5,148.5,18 / 25,72026,2020-03-11 20:24:28:853
9.342175,20.762518,15.710752,8.0,49.827698,24.046036,340.0,NaN,6.264,2.5,148.5,18 / 25,72526,2020-03-11 20:24:29:353
13.9151,23.190239,17.041927,8.0,49.827698,24.046036,340.0,NaN,6.264,2.5,148.5,16 / 25,73026,2020-03-11 20:24:29:853
3.08852,-3.150769,-9.5385,8.0,49.827698,24.046036,340.0,NaN,6.264,2.5,148.5,16 / 25,73526,2020-03-11 20:24:30:353
-1.575385,7.900866,-0.272939,8.0,49.827698,24.046036,340.0,NaN,6.264,2.5,148.5,17 / 25,74027,2020-03-11 20:24:30:854
7.25922,19.04348,10.984597,8.0,49.827698,24.046036,340.0,NaN,6.264,2.5,148.5,17 / 25,74526,2020-03-11 20:24:31:353
4.936844,-4.745308,3.256114,8.0,49.827698,24.046036,340.0,NaN,6.264,2.5,148.5,17 / 25,75026,2020-03-11 20:24:31:853
-2.092532,9.184157,3.730166,8.0,49.827698,24.046036,340.0,NaN,6.264,2.5,148.5,17 / 25,75526,2020-03-11 20:24:32:353
9.251195,-0.756568,-1.067814,8.0,49.827698,24.046036,340.0,NaN,6.264,2.5,148.5,18 / 25,76026,2020-03-11 20:24:32:853
9.32781,20.54704,7.508217,8.0,49.827698,24.046036,340.0,NaN,6.264,2.5,148.5,18 / 25,76526,2020-03-11 20:24:33:353
-0.282516,18.239029,-1.37906,8.0,49.827698,24.046036,340.0,NaN,6.264,2.5,148.5,18 / 25,77026,2020-03-11 20:24:33:853
-1.010353,-7.283161,-5.645528,8.0,49.827698,24.046036,340.0,NaN,6.264,2.5,148.5,18 / 25,77527,2020-03-11 20:24:34:354
-1.987187,6.110003,5.358224,8.0,49.827698,24.046036,340.0,NaN,6.264,2.5,148.5,18 / 21,78026,2020-03-11 20:24:34:853
0.378284,12.277467,-6.378153,8.0,49.827698,24.046036,340.0,NaN,6.264,2.5,148.5,18 / 21,78526,2020-03-11 20:24:35:353
-1.489193,-11.473015,0.905008,8.0,49.827698,24.046036,340.0,NaN,6.264,2.5,148.5,18 / 22,79027,2020-03-11 20:24:35:854
-4.309563,8.51857,7.244855,8.0,49.827698,24.046036,340.0,NaN,6.264,2.5,148.5,18 / 22,79526,2020-03-11 20:24:36:353
6.196194,5.396531,-9.361329,8.0,49.827698,24.046036,340.0,NaN,6.264,2.5,148.5,19 / 22,80026,2020-03-11 20:24:36:853
14.135366,18.20551,4.697424,8.0,49.827698,24.046036,340.0,NaN,6.264,2.5,148.5,19 / 22,80527,2020-03-11 20:24:37:354
5.161899,15.59583,5.09965,8.0,49.827698,24.046036,340.0,NaN,6.264,2.5,148.5,18 / 22,81026,2020-03-11 20:24:37:853
0.335188,-11.621455,-3.184288,8.0,49.827698,24.046036,340.0,NaN,6.264,2.5,148.5,18 / 22,81526,2020-03-11 20:24:38:353
1.570596,9.179369,-0.483629,8.0,49.827698,24.046036,340.0,NaN,6.264,2.5,148.5,17 / 21,82026,2020-03-11 20:24:38:853
-1.570596,10.620679,1.345541,8.0,49.827698,24.046036,340.0,NaN,6.264,2.5,148.5,17 / 21,82527,2020-03-11 20:24:39:354
2.987964,-15.907076,-2.312799,8.0,49.827698,24.046036,340.0,NaN,6.264,2.5,148.5,18 / 22,83026,2020-03-11 20:24:39:853
0.497994,9.217676,8.312668,8.0,49.827698,24.046036,340.0,NaN,6.264,2.5,148.5,18 / 22,83526,2020-03-11 20:24:40:353
21.126436,16.318878,-3.787627,8.0,49.827698,24.046036,340.0,NaN,6.264,2.5,148.5,18 / 23,84027,2020-03-11 20:24:40:854
17.405846,17.357962,3.792416,8.0,49.827698,24.046036,340.0,NaN,6.264,2.5,148.5,18 / 23,84526,2020-03-11 20:24:41:353
-2.317587,10.448297,1.000776,8.0,49.827698,24.046036,340.0,NaN,6.264,2.5,148.5,18 / 23,85026,2020-03-11 20:24:41:853
5.975928,-10.817003,-1.000776,8.0,49.827698,24.046036,340.0,NaN,6.264,2.5,148.5,18 / 23,85527,2020-03-11 20:24:42:354
1.699883,9.141062,5.525818,8.0,49.827698,24.046036,340.0,NaN,6.264,2.5,148.5,18 / 23,86027,2020-03-11 20:24:42:854
-3.667917,11.63582,0.397437,8.0,49.827698,24.046036,340.0,NaN,6.264,2.5,148.5,18 / 23,86526,2020-03-11 20:24:43:353
5.554548,-12.349293,-1.551443,8.0,49.827698,24.046036,340.0,NaN,6.264,2.5,148.5,17 / 23,87026,2020-03-11 20:24:43:853
2.049437,10.295067,-3.394978,8.0,49.827698,24.046036,340.0,NaN,6.264,2.5,148.5,17 / 23,87527,2020-03-11 20:24:44:354
31.196447,28.94111,-11.841722,8.0,49.827698,24.046036,340.0,NaN,6.264,2.5,148.5,17 / 23,88026,2020-03-11 20:24:44:853
12.531252,16.309301,6.651093,8.0,49.827698,24.046036,340.0,NaN,6.264,2.5,148.5,17 / 23,88527,2020-03-11 20:24:45:354
-4.510676,9.964667,-0.067038,8.0,49.827698,24.046036,340.0,NaN,6.264,2.5,148.5,18 / 23,89027,2020-03-11 20:24:45:854
5.305551,-13.603854,-0.646434,8.0,49.827698,24.046036,340.0,NaN,6.264,2.5,148.5,18 / 23,89526,2020-03-11 20:24:46:353
3.72059,9.533711,4.237737,8.0,49.827698,24.046036,340.0,NaN,6.264,2.5,148.5,18 / 23,90026,2020-03-11 20:24:46:853
-4.352658,7.043741,0.967258,8.0,49.827698,24.046036,340.0,NaN,6.264,2.5,148.5,18 / 23,90527,2020-03-11 20:24:47:354
5.348647,-13.110648,0.656011,8.0,49.827698,24.046036,340.0,NaN,6.264,2.5,148.5,18 / 23,91026,2020-03-11 20:24:47:853
2.681506,13.776237,7.714118,8.0,49.827698,24.046036,340.0,NaN,6.264,2.5,148.5,18 / 23,91526,2020-03-11 20:24:48:353
19.79526,29.472624,-1.824382,8.0,49.827698,24.046036,340.0,NaN,6.264,2.5,148.5,18 / 23,92026,2020-03-11 20:24:48:853
11.990162,7.383718,-2.724601,8.0,49.827698,24.046036,340.0,NaN,6.264,2.5,148.5,18 / 23,92526,2020-03-11 20:24:49:353
-2.27928,9.342175,0.311246,8.0,49.827045,24.045017,341.0,NaN,7.38,3.0,261.4,18 / 23,93027,2020-03-11 20:24:49:854
6.167464,-12.832921,1.134852,8.0,49.827045,24.045017,341.0,NaN,7.38,3.0,261.4,18 / 23,93526,2020-03-11 20:24:50:353
2.193089,11.15698,4.228161,8.0,49.827045,24.045017,341.0,NaN,7.38,3.0,261.4,19 / 23,94026,2020-03-11 20:24:50:853
22.984337,27.38009,-5.755661,8.0,49.827045,24.045017,341.0,NaN,7.38,3.0,261.4,19 / 23,94526,2020-03-11 20:24:51:353
7.072472,-12.74673,-2.552219,8.0,49.827045,24.045017,341.0,NaN,7.38,3.0,261.4,19 / 23,95026,2020-03-11 20:24:51:853
3.481169,12.502522,5.722142,8.0,49.827045,24.045017,341.0,NaN,7.38,3.0,261.4,19 / 23,95526,2020-03-11 20:24:52:353
31.081526,31.737537,-5.415684,8.0,49.827045,24.045017,341.0,NaN,7.38,3.0,261.4,19 / 23,96026,2020-03-11 20:24:52:853
10.888829,9.873688,3.265691,8.0,49.827045,24.045017,341.0,NaN,7.38,3.0,261.4,19 / 23,96526,2020-03-11 20:24:53:353
-5.822698,9.528923,-2.202665,8.0,49.827045,24.045017,341.0,NaN,7.38,3.0,261.4,19 / 23,97026,2020-03-11 20:24:53:853
6.842629,-12.761095,-1.896208,8.0,49.827045,24.045017,341.0,NaN,7.38,3.0,261.4,19 / 23,97527,2020-03-11 20:24:54:354
-2.624045,4.367024,3.854665,8.0,49.827045,24.045017,341.0,NaN,7.38,3.0,261.4,17 / 23,98026,2020-03-11 20:24:54:853
29.372066,29.822176,13.13459,8.0,49.827045,24.045017,341.0,NaN,7.38,3.0,261.4,17 / 23,98526,2020-03-11 20:24:55:353
0.957681,-17.927782,-0.354342,8.0,49.827045,24.045017,341.0,NaN,7.38,3.0,261.4,18 / 22,99026,2020-03-11 20:24:55:853
0.536301,17.056293,5.090073,8.0,49.827045,24.045017,341.0,NaN,7.38,3.0,261.4,18 / 22,99527,2020-03-11 20:24:56:354
12.215217,27.016172,-2.236184,8.0,49.827045,24.045017,341.0,NaN,7.38,3.0,261.4,16 / 23,100026,2020-03-11 20:24:56:853
5.425261,-1.886631,-6.08606,8.0,49.827045,24.045017,341.0,NaN,7.38,3.0,261.4,16 / 23,100526,2020-03-11 20:24:57:353
-1.187524,9.495404,2.576161,8.0,49.827045,24.045017,341.0,NaN,7.38,3.0,261.4,16 / 22,101026,2020-03-11 20:24:57:853
4.596867,-8.001422,-0.885855,8.0,49.827045,24.045017,341.0,NaN,7.38,3.0,261.4,16 / 22,101526,2020-03-11 20:24:58:353
-0.962469,9.050082,-1.374272,8.0,49.827045,24.045017,341.0,NaN,7.38,3.0,261.4,18 / 21,102026,2020-03-11 20:24:58:853
18.171991,17.0946,-6.282385,8.0,49.827045,24.045017,341.0,NaN,7.38,3.0,261.4,18 / 21,102526,2020-03-11 20:24:59:353
-1.661576,-5.683835,-5.353435,8.0,49.827045,24.045017,341.0,NaN,7.38,3.0,261.4,18 / 22,103026,2020-03-11 20:24:59:853
1.134852,5.995081,1.216255,8.0,49.827045,24.045017,341.0,NaN,7.38,3.0,261.4,18 / 22,103527,2020-03-11 20:25:00:354
-0.751779,-1.867477,-4.874594,8.0,49.827045,24.045017,341.0,NaN,7.38,3.0,261.4,18 / 22,104026,2020-03-11 20:25:00:853
2.03986,7.752425,-1.546654,8.0,49.827045,24.045017,341.0,NaN,7.38,3.0,261.4,18 / 22,104526,2020-03-11 20:25:01:353
-1.455675,-5.549759,-2.624045,8.0,49.827045,24.045017,341.0,NaN,7.38,3.0,261.4,20 / 23,105027,2020-03-11 20:25:01:854
-4.185065,4.285621,2.772486,8.0,49.827045,24.045017,341.0,NaN,7.38,3.0,261.4,20 / 23,105526,2020-03-11 20:25:02:353
10.749966,-9.595961,-1.867477,8.0,49.827045,24.045017,341.0,NaN,7.38,3.0,261.4,20 / 24,106026,2020-03-11 20:25:02:853
23.578098,32.920273,7.637504,8.0,49.827045,24.045017,341.0,NaN,7.38,3.0,261.4,20 / 24,106527,2020-03-11 20:25:03:354
-1.599327,9.26556,-0.78051,8.0,49.827045,24.045017,341.0,NaN,7.38,3.0,261.4,20 / 24,107026,2020-03-11 20:25:03:853
31.244331,36.16681,-5.674258,8.0,49.827045,24.045017,341.0,NaN,7.38,3.0,261.4,20 / 24,107526,2020-03-11 20:25:04:353
8.111555,3.835511,2.178724,8.0,49.827045,24.045017,341.0,NaN,7.38,3.0,261.4,19 / 25,108026,2020-03-11 20:25:04:853
-3.572149,5.468357,2.322376,8.0,49.827045,24.045017,341.0,NaN,7.38,3.0,261.4,19 / 25,108527,2020-03-11 20:25:05:354
4.64954,-8.796297,-4.577713,8.0,49.827045,24.045017,341.0,NaN,7.38,3.0,261.4,21 / 26,109026,2020-03-11 20:25:05:853
19.115307,6.593632,-5.947197,8.0,49.827045,24.045017,341.0,NaN,7.38,3.0,261.4,21 / 26,109526,2020-03-11 20:25:06:353
-12.607866,6.694188,2.676718,8.0,49.827045,24.045017,341.0,NaN,7.38,3.0,261.4,19 / 25,110026,2020-03-11 20:25:06:853
19.306843,-1.144428,-2.892196,8.0,49.827045,24.045017,341.0,NaN,7.38,3.0,261.4,19 / 25,110527,2020-03-11 20:25:07:354
15.619772,9.782708,-3.98874,8.0,49.827045,24.045017,341.0,NaN,7.38,3.0,261.4,21 / 26,111026,2020-03-11 20:25:07:853
0.699107,8.705317,-6.804321,0.0,49.827045,24.045017,341.0,NaN,7.38,3.0,261.4,21 / 26,111527,2020-03-11 20:25:08:354
24.353819,29.611486,-2.217031,8.0,49.827045,24.045017,341.0,NaN,7.38,3.0,261.4,20 / 25,112026,2020-03-11 20:25:08:853
5.31034,-2.240973,-1.661576,8.0,49.827045,24.045017,341.0,NaN,7.38,3.0,261.4,20 / 25,112526,2020-03-11 20:25:09:353
-2.691083,5.396531,0.205901,8.0,49.827045,24.045017,341.0,NaN,7.38,3.0,261.4,20 / 26,113027,2020-03-11 20:25:09:854
9.624691,-9.155427,-3.624821,8.0,49.827045,24.045017,341.0,NaN,7.38,3.0,261.4,20 / 26,113526,2020-03-11 20:25:10:353
26.36016,27.940334,11.358093,8.0,49.827045,24.045017,341.0,NaN,7.38,3.0,261.4,20 / 26,114026,2020-03-11 20:25:10:853
7.972692,16.476896,7.991845,8.0,49.827045,24.045017,341.0,NaN,7.38,3.0,261.4,20 / 26,114527,2020-03-11 20:25:11:354
1.82917,-6.454767,-3.643975,8.0,49.827045,24.045017,341.0,NaN,7.38,3.0,261.4,20 / 25,115027,2020-03-11 20:25:11:854
-1.996764,6.909666,4.951209,8.0,49.827045,24.045017,341.0,NaN,7.38,3.0,261.4,20 / 25,115526,2020-03-11 20:25:12:353
16.46253,-1.240196,-2.317587,8.0,49.827045,24.045017,341.0,NaN,7.38,3.0,261.4,21 / 26,116027,2020-03-11 20:25:12:854
1.297657,-11.018116,-1.987187,8.0,49.827045,24.045017,341.0,NaN,7.38,3.0,261.4,21 / 26,116526,2020-03-11 20:25:13:353
-7.048529,5.042189,6.78038,8.0,49.827045,24.045017,341.0,NaN,7.38,3.0,261.4,20 / 26,117026,2020-03-11 20:25:13:853
24.29157,23.195026,-5.60722,8.0,49.827045,24.045017,341.0,NaN,7.38,3.0,261.4,20 / 26,117526,2020-03-11 20:25:14:353
5.329493,10.840945,-2.1883,8.0,49.827045,24.045017,341.0,NaN,7.38,3.0,261.4,20 / 25,118027,2020-03-11 20:25:14:854
-6.38773,6.354212,1.886631,8.0,49.827045,24.045017,341.0,NaN,7.38,3.0,261.4,20 / 25,118526,2020-03-11 20:25:15:353
5.793968,-14.882358,-3.471592,8.0,49.827045,24.045017,341.0,NaN,7.38,3.0,261.4,21 / 26,119026,2020-03-11 20:25:15:853
12.65575,20.283676,5.707777,8.0,49.827045,24.045017,341.0,NaN,7.38,3.0,261.4,21 / 26,119526,2020-03-11 20:25:16:353
8.566454,24.53099,4.893749,8.0,49.827045,24.045017,341.0,NaN,7.38,3.0,261.4,21 / 27,120027,2020-03-11 20:25:16:854
6.382942,-9.797073,-2.499546,8.0,49.827045,24.045017,341.0,NaN,7.38,3.0,261.4,21 / 27,120526,2020-03-11 20:25:17:353
10.204087,24.756046,4.965575,8.0,49.827045,24.045017,341.0,NaN,7.38,3.0,261.4,22 / 27,121026,2020-03-11 20:25:17:853
7.776367,24.41128,4.434062,8.0,49.827045,24.045017,341.0,NaN,7.38,3.0,261.4,22 / 27,121526,2020-03-11 20:25:18:353
-4.711789,-6.181829,-3.993528,8.0,49.827045,24.045017,341.0,NaN,7.38,3.0,261.4,20 / 26,122026,2020-03-11 20:25:18:853
0.205901,8.916007,-3.586514,8.0,49.827045,24.045017,341.0,NaN,7.38,3.0,261.4,20 / 26,122526,2020-03-11 20:25:19:353
2.193089,-14.279019,1.297657,8.0,49.827045,24.045017,341.0,NaN,7.38,3.0,261.4,22 / 26,123027,2020-03-11 20:25:19:854
16.70674,22.476765,-2.99754,8.0,49.827045,24.045017,341.0,NaN,7.38,3.0,261.4,22 / 26,123526,2020-03-11 20:25:20:353
8.418014,25.507826,-1.010353,8.0,49.827045,24.045017,341.0,NaN,7.38,3.0,261.4,21 / 26,124027,2020-03-11 20:25:20:854
2.973599,-1.465251,-0.632069,8.0,49.827045,24.045017,341.0,NaN,7.38,3.0,261.4,21 / 26,124526,2020-03-11 20:25:21:353
6.416461,11.640609,6.761226,8.0,49.827045,24.045017,341.0,NaN,7.38,3.0,261.4,21 / 26,125026,2020-03-11 20:25:21:853
18.377892,1.374272,-7.819463,8.0,49.827045,24.045017,341.0,NaN,7.38,3.0,261.4,21 / 26,125526,2020-03-11 20:25:22:353
20.939688,22.266075,7.623139,8.0,49.827045,24.045017,341.0,NaN,7.38,3.0,261.4,22 / 26,126027,2020-03-11 20:25:22:854
8.446744,21.815966,1.278504,8.0,49.827045,24.045017,341.0,NaN,7.38,3.0,261.4,22 / 26,126527,2020-03-11 20:25:23:354
5.21936,-7.40766,-4.333505,8.0,49.827045,24.045017,341.0,NaN,7.38,3.0,261.4,22 / 26,127026,2020-03-11 20:25:23:853
-4.237737,5.348647,10.160992,8.0,49.827045,24.045017,341.0,NaN,7.38,3.0,261.4,22 / 26,127526,2020-03-11 20:25:24:353
20.03468,10.261548,-3.624821,8.0,49.827045,24.045017,341.0,NaN,7.38,3.0,261.4,21 / 26,128026,2020-03-11 20:25:24:853
18.579004,23.69781,10.979809,8.0,49.827045,24.045017,341.0,NaN,7.38,3.0,261.4,21 / 26,128526,2020-03-11 20:25:25:353
-2.662352,3.806781,13.809755,8.0,49.827045,24.045017,341.0,NaN,7.38,3.0,261.4,20 / 26,129026,2020-03-11 20:25:25:853
19.455282,23.314735,-15.840038,8.0,49.827045,24.045017,341.0,NaN,7.38,3.0,261.4,20 / 26,129527,2020-03-11 20:25:26:354
15.140931,18.066647,-2.025495,8.0,49.827045,24.045017,341.0,NaN,7.38,3.0,261.4,22 / 26,130027,2020-03-11 20:25:26:854
-9.68694,5.056554,1.537078,8.0,49.827045,24.045017,341.0,NaN,7.38,3.0,261.4,22 / 26,130526,2020-03-11 20:25:27:353
6.588843,-16.630125,4.400543,8.0,49.827045,24.045017,341.0,NaN,7.38,3.0,261.4,21 / 26,131026,2020-03-11 20:25:27:853
6.775591,10.012551,7.920019,8.0,49.827045,24.045017,341.0,NaN,7.38,3.0,261.4,21 / 26,131527,2020-03-11 20:25:28:354
28.155811,29.491777,2.389413,8.0,49.827045,24.045017,341.0,NaN,7.38,3.0,261.4,20 / 26,132026,2020-03-11 20:25:28:853
5.363012,3.892972,-2.791639,8.0,49.827045,24.045017,341.0,NaN,7.38,3.0,261.4,20 / 26,132526,2020-03-11 20:25:29:353
1.144428,22.754494,11.09473,8.0,49.827045,24.045017,341.0,NaN,7.38,3.0,261.4,21 / 25,133026,2020-03-11 20:25:29:853
1.915361,18.392258,6.947974,8.0,49.827045,24.045017,341.0,NaN,7.38,3.0,261.4,21 / 25,133526,2020-03-11 20:25:30:353
2.049437,-8.925584,-0.483629,8.0,49.827045,24.045017,341.0,NaN,7.38,3.0,261.4,20 / 24,134027,2020-03-11 20:25:30:854
-1.891419,5.573702,2.949657,8.0,49.827045,24.045017,341.0,NaN,7.38,3.0,261.4,20 / 24,134526,2020-03-11 20:25:31:353
12.617443,16.692375,-5.104438,8.0,49.827045,24.045017,341.0,NaN,7.38,3.0,261.4,22 / 25,135026,2020-03-11 20:25:31:853
15.466543,19.239805,7.422025,8.0,49.827045,24.045017,341.0,NaN,7.38,3.0,261.4,22 / 25,135527,2020-03-11 20:25:32:354
-0.287304,12.191275,-0.272939,8.0,49.827045,24.045017,341.0,NaN,7.38,3.0,261.4,22 / 24,136026,2020-03-11 20:25:32:853
5.415684,-10.43872,-1.848324,8.0,49.827045,24.045017,341.0,NaN,7.38,3.0,261.4,22 / 24,136527,2020-03-11 20:25:33:354
10.271125,10.759542,8.451532,8.0,49.827045,24.045017,341.0,NaN,7.38,3.0,261.4,21 / 25,137026,2020-03-11 20:25:33:853
-1.833958,9.619903,-1.067814,8.0,49.827045,24.045017,341.0,NaN,7.38,3.0,261.4,21 / 25,137526,2020-03-11 20:25:34:353
-0.967257,-12.890382,-1.565808,8.0,49.827045,24.045017,341.0,NaN,7.38,3.0,261.4,22 / 24,138027,2020-03-11 20:25:34:854
2.30801,22.596476,11.880029,8.0,49.827045,24.045017,341.0,NaN,7.38,3.0,261.4,22 / 24,138526,2020-03-11 20:25:35:353
11.693281,25.263617,19.709068,8.0,49.827045,24.045017,341.0,NaN,7.38,3.0,261.4,21 / 24,139026,2020-03-11 20:25:35:853
2.935291,-1.896208,-3.069367,8.0,49.827045,24.045017,341.0,NaN,7.38,3.0,261.4,21 / 24,139526,2020-03-11 20:25:36:353
-5.6982,4.309563,3.983952,8.0,49.827045,24.045017,341.0,NaN,7.38,3.0,261.4,20 / 24,140026,2020-03-11 20:25:36:853
9.773131,-5.707777,-3.131616,8.0,49.827045,24.045017,341.0,NaN,7.38,3.0,261.4,20 / 24,140526,2020-03-11 20:25:37:353
22.467188,21.131224,-2.375048,8.0,49.827442,24.043661,351.0,NaN,8.28,3.5,314.8,21 / 25,141026,2020-03-11 20:25:37:853
-0.565032,8.858546,4.817134,8.0,49.827442,24.043661,351.0,NaN,8.28,3.5,314.8,21 / 25,141526,2020-03-11 20:25:38:353
19.211075,20.264523,-7.335834,8.0,49.827442,24.043661,351.0,NaN,8.28,3.5,314.8,20 / 27,142026,2020-03-11 20:25:38:853
11.492168,16.136919,-0.454898,8.0,49.827442,24.043661,351.0,NaN,8.28,3.5,314.8,20 / 27,142526,2020-03-11 20:25:39:353
-3.289633,9.528923,0.646435,8.0,49.827442,24.043661,351.0,NaN,8.28,3.5,314.8,21 / 27,143027,2020-03-11 20:25:39:854
0.134075,-19.230228,-8.753201,8.0,49.827442,24.043661,351.0,NaN,8.28,3.5,314.8,21 / 27,143526,2020-03-11 20:25:40:353
9.935937,15.71554,25.52698,8.0,49.827442,24.043661,351.0,NaN,8.28,3.5,314.8,20 / 27,144026,2020-03-11 20:25:40:853
5.707777,21.887793,18.966866,8.0,49.827442,24.043661,351.0,NaN,8.28,3.5,314.8,20 / 27,144527,2020-03-11 20:25:41:354
2.035071,-5.497087,-4.252102,8.0,49.827442,24.043661,351.0,NaN,8.28,3.5,314.8,18 / 27,145026,2020-03-11 20:25:41:853
-4.908113,7.086837,1.326388,8.0,49.827442,24.043661,351.0,NaN,8.28,3.5,314.8,18 / 27,145526,2020-03-11 20:25:42:353
2.169147,18.602947,9.892841,8.0,49.827442,24.043661,351.0,NaN,8.28,3.5,314.8,18 / 27,146027,2020-03-11 20:25:42:854
5.6982,-10.97502,-1.249773,8.0,49.827442,24.043661,351.0,NaN,8.28,3.5,314.8,18 / 27,146526,2020-03-11 20:25:43:353
0.512359,9.840169,1.369483,8.0,49.827442,24.043661,351.0,NaN,8.28,3.5,314.8,20 / 27,147026,2020-03-11 20:25:43:853
15.418659,2.485181,-4.49631,8.0,49.827442,24.043661,351.0,NaN,8.28,3.5,314.8,20 / 27,147526,2020-03-11 20:25:44:353
31.426292,25.938782,-2.715025,8.0,49.827442,24.043661,351.0,NaN,8.28,3.5,314.8,19 / 26,148026,2020-03-11 20:25:44:853
-2.365471,13.383588,-3.409343,8.0,49.827442,24.043661,351.0,NaN,8.28,3.5,314.8,19 / 26,148526,2020-03-11 20:25:45:353
6.904878,-13.962984,-2.240973,8.0,49.827442,24.043661,351.0,NaN,8.28,3.5,314.8,20 / 26,149026,2020-03-11 20:25:45:853
-1.106121,7.244855,18.26776,8.0,49.827442,24.043661,351.0,NaN,8.28,3.5,314.8,20 / 26,149526,2020-03-11 20:25:46:353
-4.165911,7.800309,3.327941,8.0,49.827442,24.043661,351.0,NaN,8.28,3.5,314.8,20 / 26,150027,2020-03-11 20:25:46:854
3.926491,-16.25663,0.857124,8.0,49.827442,24.043661,351.0,NaN,8.28,3.5,314.8,20 / 26,150526,2020-03-11 20:25:47:353
-1.958457,8.978256,8.010999,8.0,49.827442,24.043661,351.0,NaN,8.28,3.5,314.8,22 / 26,151026,2020-03-11 20:25:47:853
34.773384,34.07428,2.782062,8.0,49.827442,24.043661,351.0,NaN,8.28,3.5,314.8,22 / 26,151526,2020-03-11 20:25:48:353
11.224017,-0.703895,-6.153098,8.0,49.827442,24.043661,351.0,NaN,8.28,3.5,314.8,21 / 26,152026,2020-03-11 20:25:48:853
-4.362235,6.11958,-0.459687,8.0,49.827442,24.043661,351.0,NaN,8.28,3.5,314.8,21 / 26,152526,2020-03-11 20:25:49:353
-1.053449,-15.184027,-5.190629,8.0,49.827442,24.043661,351.0,NaN,8.28,3.5,314.8,19 / 25,153026,2020-03-11 20:25:49:853
13.939042,28.797459,-5.243302,8.0,49.827442,24.043661,351.0,NaN,8.28,3.5,314.8,19 / 25,153526,2020-03-11 20:25:50:353
2.829947,21.480778,2.413355,8.0,49.827442,24.043661,351.0,NaN,8.28,3.5,314.8,21 / 26,154026,2020-03-11 20:25:50:853
10.668563,-11.563994,2.293645,8.0,49.827442,24.043661,351.0,NaN,8.28,3.5,314.8,21 / 26,154526,2020-03-11 20:25:51:353
15.270219,36.305676,-4.61602,8.0,49.827442,24.043661,351.0,NaN,8.28,3.5,314.8,20 / 26,155027,2020-03-11 20:25:51:854
-3.509899,18.181568,0.92895,8.0,49.827442,24.043661,351.0,NaN,8.28,3.5,314.8,20 / 26,155526,2020-03-11 20:25:52:353
3.572149,-10.007763,-4.67827,8.0,49.827442,24.043661,351.0,NaN,8.28,3.5,314.8,19 / 26,156026,2020-03-11 20:25:52:853
-1.426944,8.298303,4.97994,8.0,49.827442,24.043661,351.0,NaN,8.28,3.5,314.8,19 / 26,156526,2020-03-11 20:25:53:353
16.639702,8.542512,-3.351882,8.0,49.827442,24.043661,351.0,NaN,8.28,3.5,314.8,17 / 26,157026,2020-03-11 20:25:53:853
23.295582,25.809494,12.938266,8.0,49.827442,24.043661,351.0,NaN,8.28,3.5,314.8,17 / 26,157527,2020-03-11 20:25:54:354
-5.195418,10.730812,0.871489,8.0,49.827442,24.043661,351.0,NaN,8.28,3.5,314.8,17 / 26,158026,2020-03-11 20:25:54:853
36.602554,37.10534,1.168371,8.0,49.827442,24.043661,351.0,NaN,8.28,3.5,314.8,17 / 26,158527,2020-03-11 20:25:55:354
11.032481,11.683704,1.345541,8.0,49.827442,24.043661,351.0,NaN,8.28,3.5,314.8,17 / 26,159027,2020-03-11 20:25:55:854
-4.955997,7.134722,-2.226607,8.0,49.827442,24.043661,351.0,NaN,8.28,3.5,314.8,17 / 26,159526,2020-03-11 20:25:56:353
5.200207,-20.240582,-3.1795,8.0,49.827442,24.043661,351.0,NaN,8.28,3.5,314.8,18 / 26,160027,2020-03-11 20:25:56:854
7.268797,8.820239,6.296751,8.0,49.827442,24.043661,351.0,NaN,8.28,3.5,314.8,18 / 26,160526,2020-03-11 20:25:57:353
31.16293,37.565025,8.207323,8.0,49.827442,24.043661,351.0,NaN,8.28,3.5,314.8,18 / 26,161026,2020-03-11 20:25:57:853
7.450756,-1.766921,-3.29921,8.0,49.827442,24.043661,351.0,NaN,8.28,3.5,314.8,18 / 26,161526,2020-03-11 20:25:58:353
-5.003881,5.382166,8.293515,8.0,49.827442,24.043661,351.0,NaN,8.28,3.5,314.8,19 / 26,162026,2020-03-11 20:25:58:853
5.061342,-10.860099,-0.814029,8.0,49.827442,24.043661,351.0,NaN,8.28,3.5,314.8,19 / 26,162526,2020-03-11 20:25:59:353
4.381389,-1.221043,-7.206547,8.0,49.827442,24.043661,351.0,NaN,8.28,3.5,314.8,19 / 24,163026,2020-03-11 20:25:59:853
-1.704672,6.622362,5.626374,8.0,49.827442,24.043661,351.0,NaN,8.28,3.5,314.8,19 / 24,163527,2020-03-11 20:26:00:354
19.230228,0.057461,-0.153229,8.0,49.827442,24.043661,351.0,NaN,8.28,3.5,314.8,18 / 23,164026,2020-03-11 20:26:00:853
18.430565,36.52594,6.023812,8.0,49.827442,24.043661,351.0,NaN,8.28,3.5,314.8,18 / 23,164527,2020-03-11 20:26:01:354
-0.129287,19.52232,3.557784,8.0,49.827442,24.043661,351.0,NaN,8.28,3.5,314.8,19 / 24,165026,2020-03-11 20:26:01:853
-0.445322,-10.922348,-4.352658,8.0,49.827442,24.043661,351.0,NaN,8.28,3.5,314.8,19 / 24,165526,2020-03-11 20:26:02:353
-5.070919,3.385401,3.141193,8.0,49.827442,24.043661,351.0,NaN,8.28,3.5,314.8,19 / 24,166026,2020-03-11 20:26:02:853
21.509508,4.429273,-1.47004,8.0,49.827442,24.043661,351.0,NaN,8.28,3.5,314.8,19 / 24,166526,2020-03-11 20:26:03:353
1.939303,-10.97502,-10.769119,8.0,49.827442,24.043661,351.0,NaN,8.28,3.5,314.8,18 / 24,167026,2020-03-11 20:26:03:853
-3.840299,6.14831,2.006341,8.0,49.827442,24.043661,351.0,NaN,8.28,3.5,314.8,18 / 24,167527,2020-03-11 20:26:04:354
16.170439,12.77546,-4.34787,8.0,49.827442,24.043661,351.0,NaN,8.28,3.5,314.8,18 / 24,168026,2020-03-11 20:26:04:853
11.889606,17.563864,4.333505,8.0,49.827442,24.043661,351.0,NaN,8.28,3.5,314.8,18 / 24,168527,2020-03-11 20:26:05:354
-4.486734,9.069236,1.168371,8.0,49.827442,24.043661,351.0,NaN,8.28,3.5,314.8,18 / 24,169026,2020-03-11 20:26:05:853
8.101979,-18.0858,-1.642422,8.0,49.827442,24.043661,351.0,NaN,8.28,3.5,314.8,18 / 24,169526,2020-03-11 20:26:06:353
0.483629,7.929596,9.911995,8.0,49.827442,24.043661,351.0,NaN,8.28,3.5,314.8,19 / 23,170027,2020-03-11 20:26:06:854
24.928429,30.846895,4.654328,8.0,49.827442,24.043661,351.0,NaN,8.28,3.5,314.8,19 / 23,170527,2020-03-11 20:26:07:354
8.078037,-16.634912,-0.454898,8.0,49.827442,24.043661,351.0,NaN,8.28,3.5,314.8,19 / 23,171026,2020-03-11 20:26:07:853
-3.169923,5.755661,9.595961,8.0,49.827442,24.043661,351.0,NaN,8.28,3.5,314.8,19 / 23,171526,2020-03-11 20:26:08:353
28.31383,32.795776,-0.794875,8.0,49.827442,24.043661,351.0,NaN,8.28,3.5,314.8,19 / 23,172026,2020-03-11 20:26:08:853
10.156203,5.99987,-0.636858,8.0,49.827442,24.043661,351.0,NaN,8.28,3.5,314.8,19 / 23,172526,2020-03-11 20:26:09:353
-3.217807,9.222465,-1.910573,8.0,49.827442,24.043661,351.0,NaN,8.28,3.5,314.8,19 / 22,173026,2020-03-11 20:26:09:853
4.10845,-15.045163,0.751779,8.0,49.827442,24.043661,351.0,NaN,8.28,3.5,314.8,19 / 22,173527,2020-03-11 20:26:10:354
6.636728,11.616667,-2.561796,8.0,49.827442,24.043661,351.0,NaN,8.28,3.5,314.8,19 / 22,174026,2020-03-11 20:26:10:853
20.101715,33.054348,6.971915,8.0,49.827442,24.043661,351.0,NaN,8.28,3.5,314.8,19 / 22,174526,2020-03-11 20:26:11:353
5.717354,-17.793707,-0.095768,8.0,49.827442,24.043661,351.0,NaN,8.28,3.5,314.8,19 / 23,175026,2020-03-11 20:26:11:853
2.652776,18.579004,4.52983,8.0,49.827442,24.043661,351.0,NaN,8.28,3.5,314.8,19 / 23,175526,2020-03-11 20:26:12:353
14.705187,26.398468,15.825673,8.0,49.827442,24.043661,351.0,NaN,8.28,3.5,314.8,20 / 23,176026,2020-03-11 20:26:12:853
6.090849,-1.125275,-5.075707,8.0,49.827442,24.043661,351.0,NaN,8.28,3.5,314.8,20 / 23,176526,2020-03-11 20:26:13:353
-4.841076,5.324705,2.753332,8.0,49.827442,24.043661,351.0,NaN,8.28,3.5,314.8,20 / 24,177027,2020-03-11 20:26:13:854
23.257275,6.354212,11.688493,8.0,49.827442,24.043661,351.0,NaN,8.28,3.5,314.8,20 / 24,177526,2020-03-11 20:26:14:353
21.255722,33.217155,16.184803,8.0,49.827442,24.043661,351.0,NaN,8.28,3.5,314.8,19 / 24,178026,2020-03-11 20:26:14:853
-3.41892,13.517663,-2.217031,8.0,49.827442,24.043661,351.0,NaN,8.28,3.5,314.8,19 / 24,178526,2020-03-11 20:26:15:353
15.011644,11.051635,-4.036624,8.0,49.827442,24.043661,351.0,NaN,8.28,3.5,314.8,19 / 24,179027,2020-03-11 20:26:15:854
18.157625,24.009054,7.16824,8.0,49.827442,24.043661,351.0,NaN,8.28,3.5,314.8,19 / 24,179526,2020-03-11 20:26:16:353
-0.378284,14.484921,-1.537077,8.0,49.827442,24.043661,351.0,NaN,8.28,3.5,314.8,19 / 24,180026,2020-03-11 20:26:16:853
7.52737,-20.460848,4.826711,8.0,49.827442,24.043661,351.0,NaN,8.28,3.5,314.8,19 / 24,180526,2020-03-11 20:26:17:353
2.202666,11.899182,13.450625,8.0,49.827442,24.043661,351.0,NaN,8.28,3.5,314.8,20 / 25,181026,2020-03-11 20:26:17:853
12.847286,31.526848,22.218191,8.0,49.827442,24.043661,351.0,NaN,8.28,3.5,314.8,20 / 25,181527,2020-03-11 20:26:18:354
3.050213,-6.014234,-0.349553,8.0,49.827442,24.043661,351.0,NaN,8.28,3.5,314.8,17 / 25,182026,2020-03-11 20:26:18:853
-4.146757,4.237737,4.443639,8.0,49.827442,24.043661,351.0,NaN,8.28,3.5,314.8,17 / 25,182526,2020-03-11 20:26:19:353
0.80924,16.97968,-8.556877,8.0,49.827442,24.043661,351.0,NaN,8.28,3.5,314.8,18 / 25,183026,2020-03-11 20:26:19:853
4.266468,-7.034164,-2.671929,8.0,49.827442,24.043661,351.0,NaN,8.28,3.5,314.8,18 / 25,183526,2020-03-11 20:26:20:353
-4.290409,7.809886,4.161122,8.0,49.827442,24.043661,351.0,NaN,8.28,3.5,314.8,18 / 25,184026,2020-03-11 20:26:20:853
15.351622,-1.82917,-3.280056,8.0,49.827442,24.043661,351.0,NaN,8.28,3.5,314.8,18 / 25,184526,2020-03-11 20:26:21:353
24.114397,32.81014,8.303091,8.0,49.827442,24.043661,351.0,NaN,8.28,3.5,314.8,18 / 25,185027,2020-03-11 20:26:21:854
-3.888183,16.065094,-0.110133,8.0,49.827442,24.043661,351.0,NaN,8.28,3.5,314.8,18 / 25,185526,2020-03-11 20:26:22:353
2.75812,-5.281609,-0.905008,8.0,49.827442,24.043661,351.0,NaN,8.28,3.5,314.8,18 / 25,186026,2020-03-11 20:26:22:853
-4.553771,9.002198,1.70946,8.0,49.827442,24.043661,351.0,NaN,8.28,3.5,314.8,18 / 25,186526,2020-03-11 20:26:23:353
5.473145,18.98602,11.832145,8.0,49.827442,24.043661,351.0,NaN,8.28,3.5,314.8,17 / 25,187027,2020-03-11 20:26:23:854
6.761226,-12.382812,-2.523488,8.0,49.827442,24.043661,351.0,NaN,8.28,3.5,314.8,17 / 25,187526,2020-03-11 20:26:24:353
-5.410896,9.155427,12.186486,8.0,49.827442,24.043661,351.0,NaN,8.28,3.5,314.8,18 / 24,188026,2020-03-11 20:26:24:853
6.124368,13.374011,-8.058882,8.0,49.827442,24.043661,351.0,NaN,8.28,3.5,314.8,18 / 24,188527,2020-03-11 20:26:25:354
18.440142,19.211075,-6.215348,8.0,49.827297,24.042017,354.0,NaN,8.676,3.0,216.5,18 / 24,189026,2020-03-11 20:26:25:853
-2.96881,11.233594,-0.723049,8.0,49.827297,24.042017,354.0,NaN,8.676,3.0,216.5,18 / 24,189526,2020-03-11 20:26:26:353
1.934515,-9.586384,-1.355118,8.0,49.827297,24.042017,354.0,NaN,8.676,3.0,216.5,19 / 24,190026,2020-03-11 20:26:26:853
2.063802,5.793968,2.461239,8.0,49.827297,24.042017,354.0,NaN,8.676,3.0,216.5,19 / 24,190527,2020-03-11 20:26:27:354
9.208099,15.418659,-4.960786,8.0,49.827297,24.042017,354.0,NaN,8.676,3.0,216.5,17 / 24,191027,2020-03-11 20:26:27:854
17.559074,23.084892,6.253655,8.0,49.827297,24.042017,354.0,NaN,8.676,3.0,216.5,17 / 24,191526,2020-03-11 20:26:28:353
5.176265,13.000515,6.919243,8.0,49.827297,24.042017,354.0,NaN,8.676,3.0,216.5,17 / 24,192027,2020-03-11 20:26:28:854
4.314352,0.105345,-0.608127,8.0,49.827297,24.042017,354.0,NaN,8.676,3.0,216.5,17 / 24,192526,2020-03-11 20:26:29:353
-4.759673,2.231396,7.589619,8.0,49.827297,24.042017,354.0,NaN,8.676,3.0,216.5,17 / 23,193026,2020-03-11 20:26:29:853
8.437167,1.345541,6.05733,8.0,49.827297,24.042017,354.0,NaN,8.676,3.0,216.5,17 / 23,193527,2020-03-11 20:26:30:354
5.147534,6.287174,22.67788,8.0,49.827297,24.042017,354.0,NaN,8.676,3.0,216.5,18 / 24,194026,2020-03-11 20:26:30:853
4.276045,10.007763,8.887277,8.0,49.827297,24.042017,354.0,NaN,8.676,3.0,216.5,18 / 24,194526,2020-03-11 20:26:31:353
5.57849,1.795651,1.666364,8.0,49.827297,24.042017,354.0,NaN,8.676,3.0,216.5,18 / 24,195026,2020-03-11 20:26:31:853
-0.110133,6.416461,8.336611,8.0,49.827297,24.042017,354.0,NaN,8.676,3.0,216.5,18 / 24,195526,2020-03-11 20:26:32:353
1.302446,6.416461,19.292477,8.0,49.827297,24.042017,354.0,NaN,8.676,3.0,216.5,17 / 24,196026,2020-03-11 20:26:32:853
4.376601,4.759673,13.642161,8.0,49.827297,24.042017,354.0,NaN,8.676,3.0,216.5,17 / 24,196527,2020-03-11 20:26:33:354
-5.12838,3.145981,4.975151,8.0,49.827297,24.042017,354.0,NaN,8.676,3.0,216.5,16 / 23,197026,2020-03-11 20:26:33:853
4.118027,-0.454898,4.788404,8.0,49.827297,24.042017,354.0,NaN,8.676,3.0,216.5,16 / 23,197526,2020-03-11 20:26:34:353
-0.296881,6.856994,4.955998,8.0,49.827297,24.042017,354.0,NaN,8.676,3.0,216.5,18 / 23,198026,2020-03-11 20:26:34:853
9.141062,4.601656,18.14326,8.0,49.827297,24.042017,354.0,NaN,8.676,3.0,216.5,18 / 23,198526,2020-03-11 20:26:35:353
6.05733,-2.959233,-13.752295,8.0,49.827297,24.042017,354.0,NaN,8.676,3.0,216.5,18 / 23,199027,2020-03-11 20:26:35:854
3.294422,11.63582,7.402872,8.0,49.827297,24.042017,354.0,NaN,8.676,3.0,216.5,18 / 23,199527,2020-03-11 20:26:36:354
17.568651,7.599196,-4.218583,8.0,49.827297,24.042017,354.0,NaN,8.676,3.0,216.5,18 / 24,200026,2020-03-11 20:26:36:853
29.554026,11.022904,3.696648,8.0,49.827297,24.042017,354.0,NaN,8.676,3.0,216.5,18 / 24,200526,2020-03-11 20:26:37:353
-6.095637,8.025364,0.162806,8.0,49.827297,24.042017,354.0,NaN,8.676,3.0,216.5,16 / 23,201026,2020-03-11 20:26:37:853
6.679823,-12.617443,0.881066,8.0,49.827297,24.042017,354.0,NaN,8.676,3.0,216.5,16 / 23,201526,2020-03-11 20:26:38:353
8.686164,16.936583,7.364565,8.0,49.827297,24.042017,354.0,NaN,8.676,3.0,216.5,16 / 23,202026,2020-03-11 20:26:38:853
21.906946,27.236439,9.370906,8.0,49.827297,24.042017,354.0,NaN,8.676,3.0,216.5,16 / 23,202527,2020-03-11 20:26:39:354
5.707777,-4.654328,-1.977611,8.0,49.827297,24.042017,354.0,NaN,8.676,3.0,216.5,17 / 24,203026,2020-03-11 20:26:39:853
-4.76925,4.807557,-0.21069,8.0,49.827297,24.042017,354.0,NaN,8.676,3.0,216.5,17 / 24,203532,2020-03-11 20:26:40:359
0.579397,-15.107412,-0.3304,8.0,49.827297,24.042017,354.0,NaN,8.676,3.0,216.5,17 / 23,204027,2020-03-11 20:26:40:854
2.58095,-3.1795,-2.566584,8.0,49.827297,24.042017,354.0,NaN,8.676,3.0,216.5,17 / 23,204526,2020-03-11 20:26:41:353
-1.513135,9.174581,5.750873,8.0,49.827297,24.042017,354.0,NaN,8.676,3.0,216.5,17 / 21,205026,2020-03-11 20:26:41:853
6.349423,-5.683835,-0.469264,8.0,49.827297,24.042017,354.0,NaN,8.676,3.0,216.5,17 / 21,205526,2020-03-11 20:26:42:353
25.603594,36.717476,22.170307,8.0,49.827297,24.042017,354.0,NaN,8.676,3.0,216.5,15 / 22,206026,2020-03-11 20:26:42:853
2.786851,22.40015,5.315128,8.0,49.827297,24.042017,354.0,NaN,8.676,3.0,216.5,15 / 22,206526,2020-03-11 20:26:43:353
2.059013,-6.698976,-1.355118,8.0,49.827297,24.042017,354.0,NaN,8.676,3.0,216.5,19 / 22,207027,2020-03-11 20:26:43:854
-7.666234,0.009577,5.568913,8.0,49.827297,24.042017,354.0,NaN,8.676,3.0,216.5,19 / 22,207526,2020-03-11 20:26:44:353
10.01734,1.446098,1.541866,8.0,49.827297,24.042017,354.0,NaN,8.676,3.0,216.5,17 / 23,208026,2020-03-11 20:26:44:853
3.768474,-10.132261,-5.750872,8.0,49.827297,24.042017,354.0,NaN,8.676,3.0,216.5,17 / 23,208526,2020-03-11 20:26:45:353
-3.466804,4.908114,6.789956,8.0,49.827297,24.042017,354.0,NaN,8.676,3.0,216.5,18 / 23,209026,2020-03-11 20:26:45:853
12.023681,-0.076614,0.895431,8.0,49.827297,24.042017,354.0,NaN,8.676,3.0,216.5,18 / 23,209526,2020-03-11 20:26:46:353
20.283676,27.777529,-10.764331,8.0,49.827297,24.042017,354.0,NaN,8.676,3.0,216.5,16 / 23,210026,2020-03-11 20:26:46:853
-6.110002,11.990162,-4.462792,8.0,49.827297,24.042017,354.0,NaN,8.676,3.0,216.5,16 / 23,210526,2020-03-11 20:26:47:353
3.801993,-6.287173,-4.989516,8.0,49.827297,24.042017,354.0,NaN,8.676,3.0,216.5,18 / 23,211026,2020-03-11 20:26:47:853
-4.845864,4.103662,13.019669,8.0,49.827297,24.042017,354.0,NaN,8.676,3.0,216.5,18 / 23,211526,2020-03-11 20:26:48:353
35.922604,39.188293,3.20823,8.0,49.827297,24.042017,354.0,NaN,8.676,3.0,216.5,17 / 23,212026,2020-03-11 20:26:48:853
12.014104,4.582502,-6.373365,8.0,49.827297,24.042017,354.0,NaN,8.676,3.0,216.5,17 / 23,212526,2020-03-11 20:26:49:353
-6.244078,6.631939,2.595315,8.0,49.827297,24.042017,354.0,NaN,8.676,3.0,216.5,18 / 23,213026,2020-03-11 20:26:49:853
38.259342,34.390312,10.271125,8.0,49.827297,24.042017,354.0,NaN,8.676,3.0,216.5,18 / 23,213526,2020-03-11 20:26:50:353
17.549498,9.471462,-14.030022,8.0,49.827297,24.042017,354.0,NaN,8.676,3.0,216.5,17 / 22,214027,2020-03-11 20:26:50:854
-4.103661,9.198523,-2.456451,8.0,49.827297,24.042017,354.0,NaN,8.676,3.0,216.5,17 / 22,214526,2020-03-11 20:26:51:353
9.121908,-9.366117,-4.046201,8.0,49.827297,24.042017,354.0,NaN,8.676,3.0,216.5,16 / 22,215026,2020-03-11 20:26:51:853
3.758897,9.586384,-2.719813,8.0,49.827297,24.042017,354.0,NaN,8.676,3.0,216.5,16 / 22,215527,2020-03-11 20:26:52:354
28.620287,22.132,-11.769896,8.0,49.827297,24.042017,354.0,NaN,8.676,3.0,216.5,16 / 22,216026,2020-03-11 20:26:52:853
13.757083,18.521544,-7.819463,8.0,49.827297,24.042017,354.0,NaN,8.676,3.0,216.5,16 / 22,216526,2020-03-11 20:26:53:353
-2.681506,11.540052,0.761356,8.0,49.827297,24.042017,354.0,NaN,8.676,3.0,216.5,16 / 22,217026,2020-03-11 20:26:53:853
13.924677,15.998055,-4.903325,8.0,49.827297,24.042017,354.0,NaN,8.676,3.0,216.5,16 / 22,217526,2020-03-11 20:26:54:353
20.992361,15.763424,1.886631,8.0,49.827297,24.042017,354.0,NaN,8.676,3.0,216.5,16 / 22,218026,2020-03-11 20:26:54:853
-6.799533,11.161768,-2.197877,8.0,49.827297,24.042017,354.0,NaN,8.676,3.0,216.5,16 / 22,218527,2020-03-11 20:26:55:354
3.897761,-10.079589,-3.557784,8.0,49.827297,24.042017,354.0,NaN,8.676,3.0,216.5,16 / 21,219026,2020-03-11 20:26:55:853
-3.720589,5.612009,9.332599,8.0,49.827297,24.042017,354.0,NaN,8.676,3.0,216.5,16 / 21,219526,2020-03-11 20:26:56:353
16.060305,17.937359,-1.714248,8.0,49.827297,24.042017,354.0,NaN,8.676,3.0,216.5,16 / 21,220027,2020-03-11 20:26:56:854
20.90617,25.507826,10.888829,8.0,49.827297,24.042017,354.0,NaN,8.676,3.0,216.5,16 / 21,220526,2020-03-11 20:26:57:353
-4.707,8.283938,-3.428497,8.0,49.827297,24.042017,354.0,NaN,8.676,3.0,216.5,18 / 21,221026,2020-03-11 20:26:57:853
37.263355,26.862944,23.956383,8.0,49.827297,24.042017,354.0,NaN,8.676,3.0,216.5,18 / 21,221527,2020-03-11 20:26:58:354
15.887922,14.446613,10.180145,8.0,49.827297,24.042017,354.0,NaN,8.676,3.0,216.5,15 / 21,222026,2020-03-11 20:26:58:853
-2.087744,7.043741,-4.453215,8.0,49.827297,24.042017,354.0,NaN,8.676,3.0,216.5,15 / 21,222526,2020-03-11 20:26:59:353
5.597644,-14.00608,-3.643975,8.0,49.827297,24.042017,354.0,NaN,8.676,3.0,216.5,16 / 21,223027,2020-03-11 20:26:59:854
-1.479617,8.42759,6.627151,8.0,49.827297,24.042017,354.0,NaN,8.676,3.0,216.5,16 / 21,223526,2020-03-11 20:27:00:353
18.08101,22.926876,-0.665588,8.0,49.827297,24.042017,354.0,NaN,8.676,3.0,216.5,17 / 21,224027,2020-03-11 20:27:00:854
15.394717,1.833959,13.081918,8.0,49.827297,24.042017,354.0,NaN,8.676,3.0,216.5,17 / 21,224526,2020-03-11 20:27:01:353
-4.285621,12.330139,1.182736,8.0,49.827297,24.042017,354.0,NaN,8.676,3.0,216.5,15 / 21,225026,2020-03-11 20:27:01:853
39.188293,37.569813,6.090849,8.0,49.827297,24.042017,354.0,NaN,8.676,3.0,216.5,15 / 21,225526,2020-03-11 20:27:02:353
9.888053,8.753201,-4.721366,8.0,49.827297,24.042017,354.0,NaN,8.676,3.0,216.5,17 / 21,226026,2020-03-11 20:27:02:853
-2.322375,10.529699,1.422156,8.0,49.827297,24.042017,354.0,NaN,8.676,3.0,216.5,17 / 21,226527,2020-03-11 20:27:03:354
7.283162,-14.829685,-2.001553,8.0,49.827297,24.042017,354.0,NaN,8.676,3.0,216.5,17 / 21,227026,2020-03-11 20:27:03:853
4.266468,9.816227,10.970232,8.0,49.827297,24.042017,354.0,NaN,8.676,3.0,216.5,17 / 21,227526,2020-03-11 20:27:04:353
16.673222,37.73262,-14.135366,8.0,49.827297,24.042017,354.0,NaN,8.676,3.0,216.5,16 / 21,228026,2020-03-11 20:27:04:853
4.007894,1.56102,-8.255207,8.0,49.827297,24.042017,354.0,NaN,8.676,3.0,216.5,16 / 21,228526,2020-03-11 20:27:05:353
-4.941632,6.162676,-0.134075,8.0,49.827297,24.042017,354.0,NaN,8.676,3.0,216.5,18 / 21,229026,2020-03-11 20:27:05:853
17.051504,26.618734,13.680469,8.0,49.827297,24.042017,354.0,NaN,8.676,3.0,216.5,18 / 21,229527,2020-03-11 20:27:06:354
4.175488,-2.466028,-6.799533,8.0,49.827297,24.042017,354.0,NaN,8.676,3.0,216.5,16 / 21,230026,2020-03-11 20:27:06:853
-4.371812,7.383718,1.024718,8.0,49.827297,24.042017,354.0,NaN,8.676,3.0,216.5,16 / 21,230526,2020-03-11 20:27:07:353
-3.394978,-13.455414,-0.857124,8.0,49.827297,24.042017,354.0,NaN,8.676,3.0,216.5,17 / 21,231026,2020-03-11 20:27:07:853
31.55079,39.188293,-1.297657,8.0,49.827297,24.042017,354.0,NaN,8.676,3.0,216.5,17 / 21,231526,2020-03-11 20:27:08:353
0.186748,20.853497,0.545878,8.0,49.827297,24.042017,354.0,NaN,8.676,3.0,216.5,17 / 21,232026,2020-03-11 20:27:08:853
3.672706,-4.448426,-6.488286,8.0,49.827297,24.042017,354.0,NaN,8.676,3.0,216.5,17 / 21,232526,2020-03-11 20:27:09:353
-2.949656,7.426814,3.878607,8.0,49.827297,24.042017,354.0,NaN,8.676,3.0,216.5,17 / 21,233026,2020-03-11 20:27:09:853
3.011906,19.996372,-4.079719,8.0,49.827297,24.042017,354.0,NaN,8.676,3.0,216.5,17 / 21,233526,2020-03-11 20:27:10:353
-0.009577,-11.48738,-3.05979,8.0,49.827297,24.042017,354.0,NaN,8.676,3.0,216.5,19 / 21,234027,2020-03-11 20:27:10:854
-2.37026,9.864111,3.624822,8.0,49.827297,24.042017,354.0,NaN,8.676,3.0,216.5,19 / 21,234526,2020-03-11 20:27:11:353
21.078552,6.473922,-1.345541,8.0,49.827297,24.042017,354.0,NaN,8.676,3.0,216.5,19 / 21,235026,2020-03-11 20:27:11:853
23.329102,14.829685,-6.124367,8.0,49.827297,24.042017,354.0,NaN,8.676,3.0,216.5,19 / 21,235526,2020-03-11 20:27:12:353
-3.193865,12.282255,2.561796,8.0,49.827297,24.042017,354.0,NaN,8.676,3.0,216.5,17 / 21,236027,2020-03-11 20:27:12:854
10.941502,-11.530476,-5.51624,8.0,49.827297,24.042017,354.0,NaN,8.676,3.0,216.5,17 / 21,236526,2020-03-11 20:27:13:353
-6.29675,6.651093,5.343858,8.0,49.82644,24.04172,348.0,NaN,7.776,2.5,173.5,17 / 21,237026,2020-03-11 20:27:13:853
39.188293,36.176388,-3.174711,8.0,49.82644,24.04172,348.0,NaN,7.776,2.5,173.5,17 / 21,237526,2020-03-11 20:27:14:353
1.608904,-19.081787,-0.656011,8.0,49.82644,24.04172,348.0,NaN,7.776,2.5,173.5,19 / 22,238026,2020-03-11 20:27:14:853
7.666234,16.82645,6.631939,8.0,49.82644,24.04172,348.0,NaN,7.776,2.5,173.5,19 / 22,238526,2020-03-11 20:27:15:353
14.714764,32.57072,-8.250418,8.0,49.82644,24.04172,348.0,NaN,7.776,2.5,173.5,20 / 22,239026,2020-03-11 20:27:15:853
3.639187,-4.898536,0.344765,8.0,49.82644,24.04172,348.0,NaN,7.776,2.5,173.5,20 / 22,239526,2020-03-11 20:27:16:353
1.211466,6.076484,1.857901,8.0,49.82644,24.04172,348.0,NaN,7.776,2.5,173.5,19 / 21,240026,2020-03-11 20:27:16:853
8.671799,-7.029376,-1.517924,8.0,49.82644,24.04172,348.0,NaN,7.776,2.5,173.5,19 / 21,240526,2020-03-11 20:27:17:353
10.635044,31.876402,4.678271,8.0,49.82644,24.04172,348.0,NaN,7.776,2.5,173.5,19 / 22,241026,2020-03-11 20:27:17:853
-3.529053,11.69807,-6.009446,8.0,49.82644,24.04172,348.0,NaN,7.776,2.5,173.5,19 / 22,241527,2020-03-11 20:27:18:354
9.595961,-6.694188,-6.828263,8.0,49.82644,24.04172,348.0,NaN,7.776,2.5,173.5,19 / 22,242026,2020-03-11 20:27:18:853
26.379314,34.09822,18.416199,8.0,49.82644,24.04172,348.0,NaN,7.776,2.5,173.5,19 / 22,242526,2020-03-11 20:27:19:353
-1.695095,17.319654,8.049306,8.0,49.82644,24.04172,348.0,NaN,7.776,2.5,173.5,19 / 22,243026,2020-03-11 20:27:19:853
5.554548,-7.584831,0.881066,8.0,49.82644,24.04172,348.0,NaN,7.776,2.5,173.5,19 / 22,243526,2020-03-11 20:27:20:353
-1.355118,6.512229,-3.620033,8.0,49.82644,24.04172,348.0,NaN,7.776,2.5,173.5,18 / 22,244027,2020-03-11 20:27:20:854
7.776367,-13.781025,1.096544,8.0,49.82644,24.04172,348.0,NaN,7.776,2.5,173.5,18 / 22,244526,2020-03-11 20:27:21:353
28.151024,18.459295,-6.684611,8.0,49.82644,24.04172,348.0,NaN,7.776,2.5,173.5,20 / 22,245026,2020-03-11 20:27:21:853
-3.610456,10.970232,0.335188,8.0,49.82644,24.04172,348.0,NaN,7.776,2.5,173.5,20 / 22,245526,2020-03-11 20:27:22:353
17.501614,20.594925,-5.094861,8.0,49.82644,24.04172,348.0,NaN,7.776,2.5,173.5,19 / 22,246026,2020-03-11 20:27:22:853
25.244461,18.286913,-0.497994,8.0,49.82644,24.04172,348.0,NaN,7.776,2.5,173.5,19 / 22,246526,2020-03-11 20:27:23:353
-2.317587,9.165004,2.446874,8.0,49.82644,24.04172,348.0,NaN,7.776,2.5,173.5,19 / 22,247026,2020-03-11 20:27:23:853
7.493851,-16.22311,-2.542642,8.0,49.82644,24.04172,348.0,NaN,7.776,2.5,173.5,19 / 22,247526,2020-03-11 20:27:24:353
3.888184,11.745954,16.136919,8.0,49.82644,24.04172,348.0,NaN,7.776,2.5,173.5,18 / 21,248026,2020-03-11 20:27:24:853
34.677616,38.824375,3.356671,8.0,49.82644,24.04172,348.0,NaN,7.776,2.5,173.5,18 / 21,248526,2020-03-11 20:27:25:353
5.76045,-0.162806,-5.372588,8.0,49.82644,24.04172,348.0,NaN,7.776,2.5,173.5,18 / 21,249026,2020-03-11 20:27:25:853
-8.868123,4.639963,0.134075,8.0,49.82644,24.04172,348.0,NaN,7.776,2.5,173.5,18 / 21,249526,2020-03-11 20:27:26:353
10.477027,25.661055,-1.685518,8.0,49.82644,24.04172,348.0,NaN,7.776,2.5,173.5,17 / 22,250026,2020-03-11 20:27:26:853
4.668694,-7.675811,-2.782062,8.0,49.82644,24.04172,348.0,NaN,7.776,2.5,173.5,17 / 22,250526,2020-03-11 20:27:27:353
-1.192312,7.929596,1.905785,0.0,49.82644,24.04172,348.0,NaN,7.776,2.5,173.5,18 / 22,251027,2020-03-11 20:27:27:854
19.771318,-0.497994,0.957681,8.0,49.82644,24.04172,348.0,NaN,7.776,2.5,173.5,18 / 22,251526,2020-03-11 20:27:28:353
28.58677,31.316158,9.370906,8.0,49.82644,24.04172,348.0,NaN,7.776,2.5,173.5,19 / 22,252027,2020-03-11 20:27:28:854
19.25417,17.444153,-14.044387,8.0,49.82644,24.04172,348.0,NaN,7.776,2.5,173.5,19 / 22,252526,2020-03-11 20:27:29:353
4.692636,0.047884,1.053449,8.0,49.82644,24.04172,348.0,NaN,7.776,2.5,173.5,18 / 22,253026,2020-03-11 20:27:29:853
-2.920926,1.819593,3.53863,8.0,49.82644,24.04172,348.0,NaN,7.776,2.5,173.5,18 / 22,253527,2020-03-11 20:27:30:354
3.634398,-10.912771,-4.673482,8.0,49.82644,24.04172,348.0,NaN,7.776,2.5,173.5,19 / 22,254026,2020-03-11 20:27:30:853
2.566584,-2.336741,-6.742072,8.0,49.82644,24.04172,348.0,NaN,7.776,2.5,173.5,19 / 22,254526,2020-03-11 20:27:31:353
-3.572149,6.962339,2.844312,8.0,49.82644,24.04172,348.0,NaN,7.776,2.5,173.5,19 / 22,255026,2020-03-11 20:27:31:853
8.887277,-6.694188,-3.007117,8.0,49.82644,24.04172,348.0,NaN,7.776,2.5,173.5,19 / 22,255526,2020-03-11 20:27:32:353
30.38242,35.261803,1.005565,8.0,49.82644,24.04172,348.0,NaN,7.776,2.5,173.5,19 / 22,256026,2020-03-11 20:27:32:853
-1.881842,16.788143,-1.244985,8.0,49.82644,24.04172,348.0,NaN,7.776,2.5,173.5,19 / 22,256526,2020-03-11 20:27:33:353
4.338294,-8.647857,-5.391742,8.0,49.82644,24.04172,348.0,NaN,7.776,2.5,173.5,19 / 22,257026,2020-03-11 20:27:33:853
-6.133945,7.460333,2.509123,8.0,49.82644,24.04172,348.0,NaN,7.776,2.5,173.5,19 / 22,257527,2020-03-11 20:27:34:354
20.369867,14.753071,-2.863465,8.0,49.82644,24.04172,348.0,NaN,7.776,2.5,173.5,19 / 22,258026,2020-03-11 20:27:34:853
2.078167,-14.513651,-1.221043,8.0,49.82644,24.04172,348.0,NaN,7.776,2.5,173.5,19 / 22,258526,2020-03-11 20:27:35:353
0.268151,6.411672,4.836288,8.0,49.82644,24.04172,348.0,NaN,7.776,2.5,173.5,18 / 22,259027,2020-03-11 20:27:35:854
18.612524,21.95004,-25.115175,8.0,49.82644,24.04172,348.0,NaN,7.776,2.5,173.5,18 / 22,259526,2020-03-11 20:27:36:353
16.084248,9.873688,-10.491392,8.0,49.82644,24.04172,348.0,NaN,7.776,2.5,173.5,17 / 22,260026,2020-03-11 20:27:36:853
-3.955221,9.706094,-0.976834,8.0,49.82644,24.04172,348.0,NaN,7.776,2.5,173.5,17 / 22,260526,2020-03-11 20:27:37:353
7.40766,-18.77533,-1.92015,8.0,49.82644,24.04172,348.0,NaN,7.776,2.5,173.5,18 / 22,261026,2020-03-11 20:27:37:853
1.546654,8.207323,16.089035,8.0,49.82644,24.04172,348.0,NaN,7.776,2.5,173.5,18 / 22,261526,2020-03-11 20:27:38:353
23.199814,33.121387,3.107674,8.0,49.82644,24.04172,348.0,NaN,7.776,2.5,173.5,16 / 21,262026,2020-03-11 20:27:38:853
10.065224,-12.406754,-2.734178,8.0,49.82644,24.04172,348.0,NaN,7.776,2.5,173.5,16 / 21,262526,2020-03-11 20:27:39:353
3.256114,7.383718,6.464345,8.0,49.82644,24.04172,348.0,NaN,7.776,2.5,173.5,17 / 21,263026,2020-03-11 20:27:39:853
22.601265,34.99844,13.881581,8.0,49.82644,24.04172,348.0,NaN,7.776,2.5,173.5,17 / 21,263527,2020-03-11 20:27:40:354
6.167464,1.455675,-6.071695,8.0,49.82644,24.04172,348.0,NaN,7.776,2.5,173.5,19 / 21,264026,2020-03-11 20:27:40:853
-2.173935,8.978256,1.335965,8.0,49.82644,24.04172,348.0,NaN,7.776,2.5,173.5,19 / 21,264527,2020-03-11 20:27:41:354
3.878607,-6.009446,-0.502782,8.0,49.82644,24.04172,348.0,NaN,7.776,2.5,173.5,19 / 21,265026,2020-03-11 20:27:41:853
9.260772,1.752556,3.126828,8.0,49.82644,24.04172,348.0,NaN,7.776,2.5,173.5,19 / 21,265526,2020-03-11 20:27:42:353
9.615114,3.533842,0.909797,8.0,49.82644,24.04172,348.0,NaN,7.776,2.5,173.5,16 / 21,266027,2020-03-11 20:27:42:854
8.576031,3.533842,3.931279,8.0,49.82644,24.04172,348.0,NaN,7.776,2.5,173.5,16 / 21,266526,2020-03-11 20:27:43:353
5.626374,-1.944092,0.976834,8.0,49.82644,24.04172,348.0,NaN,7.776,2.5,173.5,17 / 21,267026,2020-03-11 20:27:43:853
8.240842,21.796812,2.082955,8.0,49.82644,24.04172,348.0,NaN,7.776,2.5,173.5,17 / 21,267526,2020-03-11 20:27:44:353
39.188293,39.188293,1.388637,8.0,49.82644,24.04172,348.0,NaN,7.776,2.5,173.5,16 / 21,268026,2020-03-11 20:27:44:853
6.296751,5.755661,-3.806781,8.0,49.82644,24.04172,348.0,NaN,7.776,2.5,173.5,16 / 21,268526,2020-03-11 20:27:45:353
-0.23942,7.70933,1.163582,8.0,49.82644,24.04172,348.0,NaN,7.776,2.5,173.5,17 / 21,269026,2020-03-11 20:27:45:853
9.390059,-15.940595,-0.258574,8.0,49.82644,24.04172,348.0,NaN,7.776,2.5,173.5,17 / 21,269526,2020-03-11 20:27:46:353
5.114015,16.51999,13.306973,8.0,49.82644,24.04172,348.0,NaN,7.776,2.5,173.5,17 / 20,270026,2020-03-11 20:27:46:853
15.844827,30.98097,5.348647,8.0,49.82644,24.04172,348.0,NaN,7.776,2.5,173.5,17 / 20,270526,2020-03-11 20:27:47:353
-0.885855,-17.06587,-6.402095,8.0,49.82644,24.04172,348.0,NaN,7.776,2.5,173.5,17 / 20,271026,2020-03-11 20:27:47:853
16.342821,36.401443,8.494628,8.0,49.82644,24.04172,348.0,NaN,7.776,2.5,173.5,17 / 20,271526,2020-03-11 20:27:48:353
1.484405,19.790472,-4.67827,8.0,49.82644,24.04172,348.0,NaN,7.776,2.5,173.5,16 / 20,272026,2020-03-11 20:27:48:853
0.378284,-7.048529,1.25935,8.0,49.82644,24.04172,348.0,NaN,7.776,2.5,173.5,16 / 20,272526,2020-03-11 20:27:49:353
-5.932832,4.893749,7.953538,8.0,49.82644,24.04172,348.0,NaN,7.776,2.5,173.5,18 / 20,273026,2020-03-11 20:27:49:853
20.685904,6.742072,-3.979163,8.0,49.82644,24.04172,348.0,NaN,7.776,2.5,173.5,18 / 20,273527,2020-03-11 20:27:50:354
23.822308,38.125267,-0.320823,8.0,49.82644,24.04172,348.0,NaN,7.776,2.5,173.5,17 / 20,274026,2020-03-11 20:27:50:853
3.385401,23.798365,6.742072,8.0,49.82644,24.04172,348.0,NaN,7.776,2.5,173.5,17 / 20,274526,2020-03-11 20:27:51:353
6.430826,-20.719421,1.532289,8.0,49.82644,24.04172,348.0,NaN,7.776,2.5,173.5,16 / 20,275027,2020-03-11 20:27:51:854
-0.823605,1.810017,2.178724,8.0,49.82644,24.04172,348.0,NaN,7.776,2.5,173.5,16 / 20,275526,2020-03-11 20:27:52:353
16.563087,7.331046,-2.260126,8.0,49.82644,24.04172,348.0,NaN,7.776,2.5,173.5,17 / 20,276027,2020-03-11 20:27:52:854
28.735209,39.188293,-11.161768,8.0,49.82644,24.04172,348.0,NaN,7.776,2.5,173.5,17 / 20,276526,2020-03-11 20:27:53:353
3.744532,13.704411,15.638926,8.0,49.82644,24.04172,348.0,NaN,7.776,2.5,173.5,17 / 20,277026,2020-03-11 20:27:53:853
1.04866,-7.867347,-6.900089,8.0,49.82644,24.04172,348.0,NaN,7.776,2.5,173.5,17 / 20,277526,2020-03-11 20:27:54:353
-3.227384,5.990293,3.576938,8.0,49.82644,24.04172,348.0,NaN,7.776,2.5,173.5,16 / 20,278026,2020-03-11 20:27:54:853
19.565416,0.493206,-2.537854,8.0,49.82644,24.04172,348.0,NaN,7.776,2.5,173.5,16 / 20,278526,2020-03-11 20:27:55:353
2.537854,-4.793192,-5.310339,8.0,49.82644,24.04172,348.0,NaN,7.776,2.5,173.5,17 / 20,279026,2020-03-11 20:27:55:853
-5.042188,7.843405,-1.058237,8.0,49.82644,24.04172,348.0,NaN,7.776,2.5,173.5,17 / 20,279526,2020-03-11 20:27:56:353
2.513912,-11.166556,-2.269703,8.0,49.82644,24.04172,348.0,NaN,7.776,2.5,173.5,18 / 20,280027,2020-03-11 20:27:56:854
6.574478,30.50213,4.917691,8.0,49.82644,24.04172,348.0,NaN,7.776,2.5,173.5,18 / 20,280526,2020-03-11 20:27:57:353
10.936713,26.532543,4.309563,8.0,49.82644,24.04172,348.0,NaN,7.776,2.5,173.5,18 / 20,281026,2020-03-11 20:27:57:853
0.234632,-5.06613,-2.75812,8.0,49.82644,24.04172,348.0,NaN,7.776,2.5,173.5,18 / 20,281527,2020-03-11 20:27:58:354
-2.015918,2.197877,2.75812,8.0,49.82644,24.04172,348.0,NaN,7.776,2.5,173.5,19 / 21,282026,2020-03-11 20:27:58:853
0.277727,13.115437,-6.038176,8.0,49.82644,24.04172,348.0,NaN,7.776,2.5,173.5,19 / 21,282527,2020-03-11 20:27:59:354
12.172121,12.138602,-1.182736,8.0,49.82644,24.04172,348.0,NaN,7.776,2.5,173.5,17 / 20,283026,2020-03-11 20:27:59:853
-2.537854,9.294291,-1.733402,8.0,49.82644,24.04172,348.0,NaN,7.776,2.5,173.5,17 / 20,283526,2020-03-11 20:28:00:353
-8.169016,-21.016302,-3.543418,8.0,49.82644,24.04172,348.0,NaN,7.776,2.5,173.5,18 / 21,284027,2020-03-11 20:28:00:854
1.651999,-5.051765,0.205901,8.0,49.82644,24.04172,348.0,NaN,7.776,2.5,173.5,18 / 21,284526,2020-03-11 20:28:01:353
-3.859453,5.951986,4.525041,8.0,49.82577,24.040253,344.0,NaN,7.524,2.5,215.7,18 / 22,285026,2020-03-11 20:28:01:853
6.153099,-5.90889,-0.90022,8.0,49.82577,24.040253,344.0,NaN,7.524,2.5,215.7,18 / 22,285526,2020-03-11 20:28:02:353
5.214572,22.036232,8.848969,8.0,49.82577,24.040253,344.0,NaN,7.524,2.5,215.7,19 / 22,286026,2020-03-11 20:28:02:853
24.890121,19.986795,-0.383072,8.0,49.82577,24.040253,344.0,NaN,7.524,2.5,215.7,19 / 22,286526,2020-03-11 20:28:03:353
32.12061,34.07428,8.628703,8.0,49.82577,24.040253,344.0,NaN,7.524,2.5,215.7,18 / 22,287026,2020-03-11 20:28:03:853
10.304645,20.130447,3.064578,8.0,49.82577,24.040253,344.0,NaN,7.524,2.5,215.7,18 / 22,287526,2020-03-11 20:28:04:353
-2.379836,-3.663128,-2.54743,8.0,49.82577,24.040253,344.0,NaN,7.524,2.5,215.7,19 / 22,288026,2020-03-11 20:28:04:853
4.065354,17.223886,-0.78051,8.0,49.82577,24.040253,344.0,NaN,7.524,2.5,215.7,19 / 22,288527,2020-03-11 20:28:05:354
11.587936,24.53099,10.079589,8.0,49.82577,24.040253,344.0,NaN,7.524,2.5,215.7,18 / 22,289026,2020-03-11 20:28:05:853
7.273585,3.040636,-0.3304,8.0,49.82577,24.040253,344.0,NaN,7.524,2.5,215.7,18 / 22,289526,2020-03-11 20:28:06:353
-2.413355,15.011644,2.782062,8.0,49.82577,24.040253,344.0,NaN,7.524,2.5,215.7,18 / 22,290026,2020-03-11 20:28:06:853
-3.074155,-6.335057,-2.274491,8.0,49.82577,24.040253,344.0,NaN,7.524,2.5,215.7,18 / 22,290526,2020-03-11 20:28:07:353
-3.500323,9.988609,-0.23942,8.0,49.82577,24.040253,344.0,NaN,7.524,2.5,215.7,18 / 22,291026,2020-03-11 20:28:07:853
-15.20797,-4.821922,2.044648,8.0,49.82577,24.040253,344.0,NaN,7.524,2.5,215.7,18 / 22,291526,2020-03-11 20:28:08:353
18.215086,13.594277,-1.240196,8.0,49.82577,24.040253,344.0,NaN,7.524,2.5,215.7,19 / 22,292026,2020-03-11 20:28:08:853
0.890643,8.087613,0.445322,8.0,49.82577,24.040253,344.0,NaN,7.524,2.5,215.7,19 / 22,292526,2020-03-11 20:28:09:353
0.220267,-5.707777,1.580173,8.0,49.82577,24.040253,344.0,NaN,7.524,2.5,215.7,19 / 22,293026,2020-03-11 20:28:09:853
15.547946,14.781801,-3.830723,8.0,49.82577,24.040253,344.0,NaN,7.524,2.5,215.7,19 / 22,293526,2020-03-11 20:28:10:353
5.228937,22.021868,-10.539276,8.0,49.82577,24.040253,344.0,NaN,7.524,2.5,215.7,19 / 22,294026,2020-03-11 20:28:10:853
1.340753,-8.135497,0.311246,8.0,49.82577,24.040253,344.0,NaN,7.524,2.5,215.7,19 / 22,294527,2020-03-11 20:28:11:354
-7.613561,9.639056,-0.876278,8.0,49.82577,24.040253,344.0,NaN,7.524,2.5,215.7,18 / 22,295026,2020-03-11 20:28:11:853
5.861006,-7.963114,0.986411,8.0,49.82577,24.040253,344.0,NaN,7.524,2.5,215.7,18 / 22,295526,2020-03-11 20:28:12:353
39.188293,32.336086,-2.375048,8.0,49.82577,24.040253,344.0,NaN,7.524,2.5,215.7,19 / 22,296027,2020-03-11 20:28:12:854
-6.588843,5.147534,10.773908,8.0,49.82577,24.040253,344.0,NaN,7.524,2.5,215.7,19 / 22,296526,2020-03-11 20:28:13:353
3.174712,-8.240842,-2.715025,8.0,49.82577,24.040253,344.0,NaN,7.524,2.5,215.7,18 / 22,297026,2020-03-11 20:28:13:853
20.140024,17.975666,-4.79798,8.0,49.82577,24.040253,344.0,NaN,7.524,2.5,215.7,18 / 22,297527,2020-03-11 20:28:14:354
-8.183381,10.91756,-10.979809,8.0,49.82577,24.040253,344.0,NaN,7.524,2.5,215.7,17 / 22,298027,2020-03-11 20:28:14:854
13.000515,-17.180792,0.009577,8.0,49.82577,24.040253,344.0,NaN,7.524,2.5,215.7,17 / 22,298526,2020-03-11 20:28:15:353
5.228937,9.643845,13.220781,8.0,49.82577,24.040253,344.0,NaN,7.524,2.5,215.7,17 / 22,299026,2020-03-11 20:28:15:853
36.085407,38.991974,19.64682,8.0,49.82577,24.040253,344.0,NaN,7.524,2.5,215.7,17 / 22,299526,2020-03-11 20:28:16:353
5.420473,-2.255338,0.574608,8.0,49.82577,24.040253,344.0,NaN,7.524,2.5,215.7,18 / 21,300027,2020-03-11 20:28:16:854
-1.613692,9.255983,-3.438074,8.0,49.82577,24.040253,344.0,NaN,7.524,2.5,215.7,18 / 21,300526,2020-03-11 20:28:17:353
39.164352,29.611486,14.662091,8.0,49.82577,24.040253,344.0,NaN,7.524,2.5,215.7,16 / 21,301026,2020-03-11 20:28:17:853
13.239936,7.484275,0.938527,8.0,49.82577,24.040253,344.0,NaN,7.524,2.5,215.7,16 / 21,301526,2020-03-11 20:28:18:353
-2.944868,9.02614,1.819593,8.0,49.82577,24.040253,344.0,NaN,7.524,2.5,215.7,16 / 22,302026,2020-03-11 20:28:18:853
5.93762,-14.279019,0.493206,8.0,49.82577,24.040253,344.0,NaN,7.524,2.5,215.7,16 / 22,302526,2020-03-11 20:28:19:353
4.817134,18.186356,12.009315,8.0,49.82577,24.040253,344.0,NaN,7.524,2.5,215.7,18 / 22,303026,2020-03-11 20:28:19:853
4.098873,22.835896,7.16824,8.0,49.82577,24.040253,344.0,NaN,7.524,2.5,215.7,18 / 22,303526,2020-03-11 20:28:20:353
2.355895,-2.087744,2.207454,8.0,49.82577,24.040253,344.0,NaN,7.524,2.5,215.7,18 / 22,304026,2020-03-11 20:28:20:853
-0.469264,9.289502,0.737414,8.0,49.82577,24.040253,344.0,NaN,7.524,2.5,215.7,18 / 22,304526,2020-03-11 20:28:21:353
10.85531,10.85531,-9.715671,8.0,49.82577,24.040253,344.0,NaN,7.524,2.5,215.7,19 / 22,305026,2020-03-11 20:28:21:853
6.287174,-12.780249,-5.310339,8.0,49.82577,24.040253,344.0,NaN,7.524,2.5,215.7,19 / 22,305527,2020-03-11 20:28:22:354
-5.080496,4.817134,10.721235,8.0,49.82577,24.040253,344.0,NaN,7.524,2.5,215.7,17 / 21,306026,2020-03-11 20:28:22:853
18.981232,19.79526,16.893488,8.0,49.82577,24.040253,344.0,NaN,7.524,2.5,215.7,17 / 21,306526,2020-03-11 20:28:23:353
17.894264,12.53604,6.277597,8.0,49.82577,24.040253,344.0,NaN,7.524,2.5,215.7,18 / 22,307026,2020-03-11 20:28:23:853
-4.390966,6.847417,-0.038307,8.0,49.82577,24.040253,344.0,NaN,7.524,2.5,215.7,18 / 22,307526,2020-03-11 20:28:24:353
1.130063,-16.46253,-4.314351,8.0,49.82577,24.040253,344.0,NaN,7.524,2.5,215.7,18 / 22,308027,2020-03-11 20:28:24:854
1.685518,25.594019,8.556877,8.0,49.82577,24.040253,344.0,NaN,7.524,2.5,215.7,18 / 22,308526,2020-03-11 20:28:25:353
-0.502782,16.270994,11.927913,8.0,49.82577,24.040253,344.0,NaN,7.524,2.5,215.7,19 / 22,309026,2020-03-11 20:28:25:853
7.987057,-4.156334,-5.391742,8.0,49.82577,24.040253,344.0,NaN,7.524,2.5,215.7,19 / 22,309527,2020-03-11 20:28:26:354
0.177171,7.642292,-2.087744,8.0,49.82577,24.040253,344.0,NaN,7.524,2.5,215.7,18 / 22,310026,2020-03-11 20:28:26:853
37.1197,34.30891,3.998317,8.0,49.82577,24.040253,344.0,NaN,7.524,2.5,215.7,18 / 22,310526,2020-03-11 20:28:27:353
20.197483,7.996634,-3.117251,8.0,49.82577,24.040253,344.0,NaN,7.524,2.5,215.7,19 / 22,311026,2020-03-11 20:28:27:853
-2.379836,12.334928,-1.805228,8.0,49.82577,24.040253,344.0,NaN,7.524,2.5,215.7,19 / 22,311526,2020-03-11 20:28:28:353
6.071696,-13.292608,-3.830723,8.0,49.82577,24.040253,344.0,NaN,7.524,2.5,215.7,18 / 22,312026,2020-03-11 20:28:28:853
-1.867477,11.48738,0.804452,8.0,49.82577,24.040253,344.0,NaN,7.524,2.5,215.7,18 / 22,312526,2020-03-11 20:28:29:353
14.614207,17.180792,-10.91756,8.0,49.82577,24.040253,344.0,NaN,7.524,2.5,215.7,19 / 22,313026,2020-03-11 20:28:29:853
16.658855,18.851944,-2.777274,8.0,49.82577,24.040253,344.0,NaN,7.524,2.5,215.7,19 / 22,313527,2020-03-11 20:28:30:354
-3.835511,11.36767,1.010353,8.0,49.82577,24.040253,344.0,NaN,7.524,2.5,215.7,18 / 22,314026,2020-03-11 20:28:30:853
4.520253,-4.649539,-0.871489,8.0,49.82577,24.040253,344.0,NaN,7.524,2.5,215.7,18 / 22,314526,2020-03-11 20:28:31:353
27.164612,30.98097,0.708684,8.0,49.82577,24.040253,344.0,NaN,7.524,2.5,215.7,17 / 21,315026,2020-03-11 20:28:31:853
2.1883,19.426552,10.869676,8.0,49.82577,24.040253,344.0,NaN,7.524,2.5,215.7,17 / 21,315526,2020-03-11 20:28:32:353
3.251326,-1.70946,-2.901772,8.0,49.82577,24.040253,344.0,NaN,7.524,2.5,215.7,18 / 21,316026,2020-03-11 20:28:32:853
4.491523,16.864758,2.030283,8.0,49.82577,24.040253,344.0,NaN,7.524,2.5,215.7,18 / 21,316526,2020-03-11 20:28:33:353
-9.045294,-13.220781,-5.291186,8.0,49.82577,24.040253,344.0,NaN,7.524,2.5,215.7,19 / 22,317026,2020-03-11 20:28:33:853
-0.373495,5.813122,0.732626,8.0,49.82577,24.040253,344.0,NaN,7.524,2.5,215.7,19 / 22,317526,2020-03-11 20:28:34:353
3.284845,-1.58975,-1.714248,8.0,49.82577,24.040253,344.0,NaN,7.524,2.5,215.7,17 / 22,318026,2020-03-11 20:28:34:853
0.253785,-8.628703,-3.98874,8.0,49.82577,24.040253,344.0,NaN,7.524,2.5,215.7,17 / 22,318526,2020-03-11 20:28:35:353
7.924808,0.636858,-8.202534,8.0,49.82577,24.040253,344.0,NaN,7.524,2.5,215.7,17 / 22,319026,2020-03-11 20:28:35:853
-2.523488,14.058752,-5.956774,8.0,49.82577,24.040253,344.0,NaN,7.524,2.5,215.7,17 / 22,319526,2020-03-11 20:28:36:353
2.288857,-11.889606,-5.439626,8.0,49.82577,24.040253,344.0,NaN,7.524,2.5,215.7,16 / 22,320026,2020-03-11 20:28:36:853
2.063802,19.756952,4.213795,8.0,49.82577,24.040253,344.0,NaN,7.524,2.5,215.7,16 / 22,320526,2020-03-11 20:28:37:353
-3.734954,17.506401,2.025495,8.0,49.82577,24.040253,344.0,NaN,7.524,2.5,215.7,17 / 22,321026,2020-03-11 20:28:37:853
7.326257,-10.328587,-1.517924,8.0,49.82577,24.040253,344.0,NaN,7.524,2.5,215.7,17 / 22,321527,2020-03-11 20:28:38:354
24.765623,31.3401,1.790863,8.0,49.82577,24.040253,344.0,NaN,7.524,2.5,215.7,17 / 21,322026,2020-03-11 20:28:38:853
3.347094,16.041151,7.335834,8.0,49.82577,24.040253,344.0,NaN,7.524,2.5,215.7,17 / 21,322526,2020-03-11 20:28:39:353
-8.99741,-2.983175,2.03986,8.0,49.82577,24.040253,344.0,NaN,7.524,2.5,215.7,18 / 21,323027,2020-03-11 20:28:39:854
12.890382,11.827356,-2.533065,8.0,49.82577,24.040253,344.0,NaN,7.524,2.5,215.7,18 / 21,323526,2020-03-11 20:28:40:353
-2.025495,16.43859,-2.442086,8.0,49.82577,24.040253,344.0,NaN,7.524,2.5,215.7,18 / 21,324026,2020-03-11 20:28:40:853
-0.474052,-12.239159,-1.532289,8.0,49.82577,24.040253,344.0,NaN,7.524,2.5,215.7,18 / 21,324526,2020-03-11 20:28:41:353
19.354727,22.558168,0.54109,8.0,49.82577,24.040253,344.0,NaN,7.524,2.5,215.7,18 / 21,325026,2020-03-11 20:28:41:853
5.741296,19.302053,4.74052,8.0,49.82577,24.040253,344.0,NaN,7.524,2.5,215.7,18 / 21,325526,2020-03-11 20:28:42:353
-6.014234,-20.369867,-0.311246,8.0,49.82577,24.040253,344.0,NaN,7.524,2.5,215.7,18 / 21,326027,2020-03-11 20:28:42:854
-1.149217,11.894394,1.637634,8.0,49.82577,24.040253,344.0,NaN,7.524,2.5,215.7,18 / 21,326526,2020-03-11 20:28:43:353
-3.169923,7.785944,8.461109,8.0,49.82577,24.040253,344.0,NaN,7.524,2.5,215.7,18 / 21,327026,2020-03-11 20:28:43:853
3.107674,-9.366117,-4.606444,8.0,49.82577,24.040253,344.0,NaN,7.524,2.5,215.7,18 / 21,327526,2020-03-11 20:28:44:353
18.938135,11.061212,-6.789956,8.0,49.82577,24.040253,344.0,NaN,7.524,2.5,215.7,19 / 21,328026,2020-03-11 20:28:44:853
0.383072,13.599066,-5.358223,8.0,49.82577,24.040253,344.0,NaN,7.524,2.5,215.7,19 / 21,328527,2020-03-11 20:28:45:354
0.272939,-8.068459,-3.275268,8.0,49.82577,24.040253,344.0,NaN,7.524,2.5,215.7,18 / 21,329026,2020-03-11 20:28:45:853
-4.88896,7.431602,9.050082,8.0,49.82577,24.040253,344.0,NaN,7.524,2.5,215.7,18 / 21,329526,2020-03-11 20:28:46:353
7.206548,6.234502,-4.865018,8.0,49.82577,24.040253,344.0,NaN,7.524,2.5,215.7,17 / 21,330027,2020-03-11 20:28:46:854
0.833182,-3.246537,-2.264915,8.0,49.82577,24.040253,344.0,NaN,7.524,2.5,215.7,17 / 21,330526,2020-03-11 20:28:47:353
20.06341,20.537462,1.886631,8.0,49.82577,24.040253,344.0,NaN,7.524,2.5,215.7,17 / 21,331026,2020-03-11 20:28:47:853
12.41633,23.946806,-3.945644,8.0,49.82577,24.040253,344.0,NaN,7.524,2.5,215.7,17 / 21,331526,2020-03-11 20:28:48:353
2.633622,-4.82671,-4.548983,8.0,49.82577,24.040253,344.0,NaN,7.524,2.5,215.7,17 / 22,332027,2020-03-11 20:28:48:854
-2.197877,6.722919,-1.273715,8.0,49.82577,24.040253,344.0,NaN,7.524,2.5,215.7,17 / 22,332526,2020-03-11 20:28:49:353
4.252103,-4.218583,0.426168,8.0,49.825653,24.038614,335.0,NaN,6.912,2.5,319.5,17 / 22,333026,2020-03-11 20:28:49:853
18.995596,37.043087,14.173674,8.0,49.825653,24.038614,335.0,NaN,6.912,2.5,319.5,17 / 22,333527,2020-03-11 20:28:50:354
-2.336741,11.104307,0.488417,8.0,49.825653,24.038614,335.0,NaN,6.912,2.5,319.5,17 / 22,334026,2020-03-11 20:28:50:853
-0.172383,-11.664551,0.014365,8.0,49.825653,24.038614,335.0,NaN,6.912,2.5,319.5,17 / 22,334526,2020-03-11 20:28:51:353
-2.738967,-10.342952,0.047884,8.0,49.825653,24.038614,335.0,NaN,6.912,2.5,319.5,15 / 21,335026,2020-03-11 20:28:51:853
-1.580173,5.904102,5.645528,8.0,49.825653,24.038614,335.0,NaN,6.912,2.5,319.5,15 / 21,335527,2020-03-11 20:28:52:354
28.093563,35.41982,-9.078813,8.0,49.825653,24.038614,335.0,NaN,6.912,2.5,319.5,14 / 21,336026,2020-03-11 20:28:52:853
0.550666,-7.805097,-5.272032,8.0,49.825653,24.038614,335.0,NaN,6.912,2.5,319.5,14 / 21,336526,2020-03-11 20:28:53:353
-0.732626,15.040375,-9.251195,0.0,49.825653,24.038614,335.0,NaN,6.912,2.5,319.5,14 / 22,337026,2020-03-11 20:28:53:853
-6.430825,1.810017,-5.468356,8.0,49.825653,24.038614,335.0,NaN,6.912,2.5,319.5,14 / 22,337527,2020-03-11 20:28:54:354
18.981232,17.563864,6.71813,8.0,49.825653,24.038614,335.0,NaN,6.912,2.5,319.5,14 / 22,338026,2020-03-11 20:28:54:853
-6.564901,6.675035,-3.725378,8.0,49.825653,24.038614,335.0,NaN,6.912,2.5,319.5,14 / 22,338526,2020-03-11 20:28:55:353
17.525557,10.764331,-12.789825,8.0,49.825653,24.038614,335.0,NaN,6.912,2.5,319.5,15 / 22,339026,2020-03-11 20:28:55:853
14.164097,22.620419,7.25922,8.0,49.825653,24.038614,335.0,NaN,6.912,2.5,319.5,15 / 22,339526,2020-03-11 20:28:56:353
-1.053449,12.665327,0.588974,8.0,49.825653,24.038614,335.0,NaN,6.912,2.5,319.5,15 / 22,340026,2020-03-11 20:28:56:853
9.303867,5.688624,-2.700659,8.0,49.825653,24.038614,335.0,NaN,6.912,2.5,319.5,15 / 22,340527,2020-03-11 20:28:57:354
22.337902,23.779213,8.408437,8.0,49.825653,24.038614,335.0,NaN,6.912,2.5,319.5,17 / 22,341026,2020-03-11 20:28:57:853
29.922733,23.788788,2.001553,8.0,49.825653,24.038614,335.0,NaN,6.912,2.5,319.5,17 / 22,341526,2020-03-11 20:28:58:353
10.577583,-8.121132,-8.121132,8.0,49.825653,24.038614,335.0,NaN,6.912,2.5,319.5,17 / 22,342027,2020-03-11 20:28:58:854
-2.231396,9.179369,4.151546,8.0,49.825653,24.038614,335.0,NaN,6.912,2.5,319.5,17 / 22,342526,2020-03-11 20:28:59:353
3.596091,-10.658986,-8.987833,8.0,49.825653,24.038614,335.0,NaN,6.912,2.5,319.5,17 / 21,343026,2020-03-11 20:28:59:853
1.953669,17.855959,10.208876,8.0,49.825653,24.038614,335.0,NaN,6.912,2.5,319.5,17 / 21,343526,2020-03-11 20:29:00:353
13.120225,23.625982,0.593762,8.0,49.825653,24.038614,335.0,NaN,6.912,2.5,319.5,17 / 22,344026,2020-03-11 20:29:00:853
14.824897,1.853112,-1.355118,8.0,49.825653,24.038614,335.0,NaN,6.912,2.5,319.5,17 / 22,344527,2020-03-11 20:29:01:354
4.764462,24.238897,2.75812,8.0,49.825653,24.038614,335.0,NaN,6.912,2.5,319.5,17 / 22,345026,2020-03-11 20:29:01:853
8.576031,24.760834,-0.6608,8.0,49.825653,24.038614,335.0,NaN,6.912,2.5,319.5,17 / 22,345526,2020-03-11 20:29:02:353
4.209007,-1.383848,-5.822698,8.0,49.825653,24.038614,335.0,NaN,6.912,2.5,319.5,17 / 22,346026,2020-03-11 20:29:02:853
-2.590526,7.996634,-1.106121,8.0,49.825653,24.038614,335.0,NaN,6.912,2.5,319.5,17 / 22,346526,2020-03-11 20:29:03:353
-1.565808,-12.253524,-8.092401,8.0,49.825653,24.038614,335.0,NaN,6.912,2.5,319.5,14 / 21,347026,2020-03-11 20:29:03:853
4.778827,24.53578,7.963115,8.0,49.825653,24.038614,335.0,NaN,6.912,2.5,319.5,14 / 21,347526,2020-03-11 20:29:04:353
14.69561,29.668947,9.586384,8.0,49.825653,24.038614,335.0,NaN,6.912,2.5,319.5,16 / 22,348026,2020-03-11 20:29:04:853
-0.526724,-6.224924,-2.42772,8.0,49.825653,24.038614,335.0,NaN,6.912,2.5,319.5,16 / 22,348526,2020-03-11 20:29:05:353
22.079329,29.204472,7.881712,8.0,49.825653,24.038614,335.0,NaN,6.912,2.5,319.5,17 / 22,349026,2020-03-11 20:29:05:853
-7.101202,10.204087,-3.557784,8.0,49.825653,24.038614,335.0,NaN,6.912,2.5,319.5,17 / 22,349526,2020-03-11 20:29:06:353
5.386954,-19.009962,0.766145,8.0,49.825653,24.038614,335.0,NaN,6.912,2.5,319.5,17 / 22,350026,2020-03-11 20:29:06:853
-1.527501,5.358224,2.499547,8.0,49.825653,24.038614,335.0,NaN,6.912,2.5,319.5,17 / 22,350526,2020-03-11 20:29:07:353
17.51119,22.064962,0.35913,8.0,49.825653,24.038614,335.0,NaN,6.912,2.5,319.5,16 / 22,351026,2020-03-11 20:29:07:853
17.48246,14.03481,8.872911,8.0,49.825653,24.038614,335.0,NaN,6.912,2.5,319.5,16 / 22,351526,2020-03-11 20:29:08:353
-1.01993,10.601525,-2.355894,8.0,49.825653,24.038614,335.0,NaN,6.912,2.5,319.5,16 / 22,352026,2020-03-11 20:29:08:853
25.82386,33.255463,-4.49631,8.0,49.825653,24.038614,335.0,NaN,6.912,2.5,319.5,16 / 22,352526,2020-03-11 20:29:09:353
9.552865,9.241618,-0.751779,8.0,49.825653,24.038614,335.0,NaN,6.912,2.5,319.5,16 / 22,353027,2020-03-11 20:29:09:854
-7.393295,6.885724,-3.77805,8.0,49.825653,24.038614,335.0,NaN,6.912,2.5,319.5,16 / 22,353526,2020-03-11 20:29:10:353
7.25922,-12.770672,1.005565,8.0,49.825653,24.038614,335.0,NaN,6.912,2.5,319.5,16 / 21,354026,2020-03-11 20:29:10:853
-0.225055,11.511322,-2.60968,8.0,49.825653,24.038614,335.0,NaN,6.912,2.5,319.5,16 / 21,354527,2020-03-11 20:29:11:354
13.230358,17.506401,-6.325481,8.0,49.825653,24.038614,335.0,NaN,6.912,2.5,319.5,15 / 21,355026,2020-03-11 20:29:11:853
16.510414,18.248606,4.606444,8.0,49.825653,24.038614,335.0,NaN,6.912,2.5,319.5,15 / 21,355526,2020-03-11 20:29:12:353
-4.161122,9.232041,0.814029,8.0,49.825653,24.038614,335.0,NaN,6.912,2.5,319.5,16 / 21,356027,2020-03-11 20:29:12:854
34.055126,31.277851,12.014104,8.0,49.825653,24.038614,335.0,NaN,6.912,2.5,319.5,16 / 21,356526,2020-03-11 20:29:13:353
11.209652,9.868899,-3.41892,8.0,49.825653,24.038614,335.0,NaN,6.912,2.5,319.5,16 / 21,357026,2020-03-11 20:29:13:853
-1.628057,10.012551,-3.754108,8.0,49.825653,24.038614,335.0,NaN,6.912,2.5,319.5,16 / 21,357527,2020-03-11 20:29:14:354
4.845865,-11.405977,-2.504335,8.0,49.825653,24.038614,335.0,NaN,6.912,2.5,319.5,16 / 21,358026,2020-03-11 20:29:14:853
2.964022,2.030283,-6.234501,8.0,49.825653,24.038614,335.0,NaN,6.912,2.5,319.5,16 / 21,358526,2020-03-11 20:29:15:353
9.006987,29.84133,8.686164,8.0,49.825653,24.038614,335.0,NaN,6.912,2.5,319.5,15 / 20,359026,2020-03-11 20:29:15:853
5.018247,0.6608,-5.928043,8.0,49.825653,24.038614,335.0,NaN,6.912,2.5,319.5,15 / 20,359526,2020-03-11 20:29:16:353
-2.193089,9.045294,-1.388637,8.0,49.825653,24.038614,335.0,NaN,6.912,2.5,319.5,15 / 21,360026,2020-03-11 20:29:16:853
20.245367,24.41607,5.688624,8.0,49.825653,24.038614,335.0,NaN,6.912,2.5,319.5,15 / 21,360526,2020-03-11 20:29:17:353
10.328587,15.921441,2.614468,8.0,49.825653,24.038614,335.0,NaN,6.912,2.5,319.5,16 / 21,361026,2020-03-11 20:29:17:853
-2.025495,9.65821,-0.143652,8.0,49.825653,24.038614,335.0,NaN,6.912,2.5,319.5,16 / 21,361527,2020-03-11 20:29:18:354
4.970363,-7.508216,-6.670246,8.0,49.825653,24.038614,335.0,NaN,6.912,2.5,319.5,16 / 21,362026,2020-03-11 20:29:18:853
-3.145981,5.616797,4.448427,8.0,49.825653,24.038614,335.0,NaN,6.912,2.5,319.5,16 / 21,362526,2020-03-11 20:29:19:353
-3.007117,2.298434,-5.185841,8.0,49.825653,24.038614,335.0,NaN,6.912,2.5,319.5,16 / 21,363026,2020-03-11 20:29:19:853
15.179238,26.690561,7.335834,8.0,49.825653,24.038614,335.0,NaN,6.912,2.5,319.5,16 / 21,363526,2020-03-11 20:29:20:353
-0.679953,17.290924,3.715801,8.0,49.825653,24.038614,335.0,NaN,6.912,2.5,319.5,16 / 21,364026,2020-03-11 20:29:20:853
1.848324,6.679823,-7.134721,8.0,49.825653,24.038614,335.0,NaN,6.912,2.5,319.5,16 / 21,364526,2020-03-11 20:29:21:353
14.12579,28.663383,13.919888,8.0,49.825653,24.038614,335.0,NaN,6.912,2.5,319.5,16 / 20,365026,2020-03-11 20:29:21:853
-3.160346,15.203181,2.647987,8.0,49.825653,24.038614,335.0,NaN,6.912,2.5,319.5,16 / 20,365526,2020-03-11 20:29:22:353
5.990293,-7.201759,-6.785167,8.0,49.825653,24.038614,335.0,NaN,6.912,2.5,319.5,15 / 20,366026,2020-03-11 20:29:22:853
-4.735731,5.0374,3.232172,8.0,49.825653,24.038614,335.0,NaN,6.912,2.5,319.5,15 / 20,366526,2020-03-11 20:29:23:353
18.995596,14.84405,5.444415,8.0,49.825653,24.038614,335.0,NaN,6.912,2.5,319.5,16 / 20,367026,2020-03-11 20:29:23:853
12.047623,15.768212,3.447651,8.0,49.825653,24.038614,335.0,NaN,6.912,2.5,319.5,16 / 20,367526,2020-03-11 20:29:24:353
-4.999093,8.197747,-0.699107,8.0,49.825653,24.038614,335.0,NaN,6.912,2.5,319.5,16 / 20,368027,2020-03-11 20:29:24:854
17.410633,39.126045,15.35641,8.0,49.825653,24.038614,335.0,NaN,6.912,2.5,319.5,16 / 20,368526,2020-03-11 20:29:25:353
-0.474052,6.042965,-0.129287,8.0,49.825653,24.038614,335.0,NaN,6.912,2.5,319.5,15 / 20,369027,2020-03-11 20:29:25:854
-5.444414,5.080496,-3.509899,8.0,49.825653,24.038614,335.0,NaN,6.912,2.5,319.5,15 / 20,369526,2020-03-11 20:29:26:353
9.002198,-10.745177,0.35913,8.0,49.825653,24.038614,335.0,NaN,6.912,2.5,319.5,15 / 20,370026,2020-03-11 20:29:26:853
-2.671929,10.82658,7.489063,8.0,49.825653,24.038614,335.0,NaN,6.912,2.5,319.5,15 / 20,370526,2020-03-11 20:29:27:353
26.384102,39.188293,5.286398,8.0,49.825653,24.038614,335.0,NaN,6.912,2.5,319.5,17 / 20,371026,2020-03-11 20:29:27:853
2.245761,-1.843535,-7.613561,8.0,49.825653,24.038614,335.0,NaN,6.912,2.5,319.5,17 / 20,371526,2020-03-11 20:29:28:353
-5.990292,6.196194,14.69561,8.0,49.825653,24.038614,335.0,NaN,6.912,2.5,319.5,17 / 21,372026,2020-03-11 20:29:28:853
0.344765,17.492037,-0.684742,8.0,49.825653,24.038614,335.0,NaN,6.912,2.5,319.5,17 / 21,372527,2020-03-11 20:29:29:354
6.095638,-8.60955,-8.90643,8.0,49.825653,24.038614,335.0,NaN,6.912,2.5,319.5,16 / 21,373026,2020-03-11 20:29:29:853
-5.444414,7.153875,1.939303,8.0,49.825653,24.038614,335.0,NaN,6.912,2.5,319.5,16 / 21,373526,2020-03-11 20:29:30:353
24.061728,20.556616,-10.663774,8.0,49.825653,24.038614,335.0,NaN,6.912,2.5,319.5,16 / 21,374026,2020-03-11 20:29:30:853
6.301539,4.831499,2.70066,8.0,49.825653,24.038614,335.0,NaN,6.912,2.5,319.5,16 / 21,374526,2020-03-11 20:29:31:353
-4.266467,5.736508,-1.359906,8.0,49.825653,24.038614,335.0,NaN,6.912,2.5,319.5,16 / 20,375026,2020-03-11 20:29:31:853
9.677363,-11.022904,-2.336741,8.0,49.825653,24.038614,335.0,NaN,6.912,2.5,319.5,16 / 20,375527,2020-03-11 20:29:32:354
-2.624045,10.156203,6.406884,8.0,49.825653,24.038614,335.0,NaN,6.912,2.5,319.5,16 / 21,376026,2020-03-11 20:29:32:853
15.844827,32.24511,-0.325611,8.0,49.825653,24.038614,335.0,NaN,6.912,2.5,319.5,16 / 21,376526,2020-03-11 20:29:33:353
9.41879,4.012682,4.788404,8.0,49.825653,24.038614,335.0,NaN,6.912,2.5,319.5,13 / 19,377026,2020-03-11 20:29:33:853
5.784392,14.149732,5.765238,8.0,49.825653,24.038614,335.0,NaN,6.912,2.5,319.5,13 / 19,377526,2020-03-11 20:29:34:353
29.530085,36.339195,6.244078,8.0,49.825653,24.038614,335.0,NaN,6.912,2.5,319.5,13 / 19,378027,2020-03-11 20:29:34:854
3.835511,4.76925,-4.568136,8.0,49.825653,24.038614,335.0,NaN,6.912,2.5,319.5,13 / 19,378526,2020-03-11 20:29:35:353
-6.540959,-3.409343,14.733917,8.0,49.825653,24.038614,335.0,NaN,6.912,2.5,319.5,17 / 20,379026,2020-03-11 20:29:35:853
0.68953,-3.854665,-7.920019,8.0,49.825653,24.038614,335.0,NaN,6.912,2.5,319.5,17 / 20,379526,2020-03-11 20:29:36:353
-9.782708,18.44493,10.55843,8.0,49.825653,24.038614,335.0,NaN,6.912,2.5,319.5,16 / 21,380026,2020-03-11 20:29:36:853
-0.775721,16.543934,9.11712,8.0,49.825653,24.038614,335.0,NaN,6.912,2.5,319.5,16 / 21,380526,2020-03-11 20:29:37:353
3.74932,-1.403002,-5.889736,8.0,49.82528,24.036968,334.0,NaN,7.704,4.0,235.2,15 / 23,381026,2020-03-11 20:29:37:853
10.390836,25.388115,23.44881,8.0,49.82528,24.036968,334.0,NaN,7.704,4.0,235.2,15 / 23,381527,2020-03-11 20:29:38:354
-3.552995,11.745954,11.209652,8.0,49.82528,24.036968,334.0,NaN,7.704,4.0,235.2,16 / 23,382026,2020-03-11 20:29:38:853
2.839523,-7.326257,-1.900996,8.0,49.82528,24.036968,334.0,NaN,7.704,4.0,235.2,16 / 23,382527,2020-03-11 20:29:39:354
3.007117,7.771579,0.627281,8.0,49.82528,24.036968,334.0,NaN,7.704,4.0,235.2,15 / 23,383026,2020-03-11 20:29:39:853
17.57344,10.204087,-6.995857,8.0,49.82528,24.036968,334.0,NaN,7.704,4.0,235.2,15 / 23,383526,2020-03-11 20:29:40:353
16.749836,21.772873,3.260903,8.0,49.82528,24.036968,334.0,NaN,7.704,4.0,235.2,13 / 23,384026,2020-03-11 20:29:40:853
1.182736,17.051504,9.548077,8.0,49.82528,24.036968,334.0,NaN,7.704,4.0,235.2,13 / 23,384526,2020-03-11 20:29:41:353
6.244078,-7.819463,-3.289633,8.0,49.82528,24.036968,334.0,NaN,7.704,4.0,235.2,15 / 23,385026,2020-03-11 20:29:41:853
11.324574,17.458517,15.959748,8.0,49.82528,24.036968,334.0,NaN,7.704,4.0,235.2,15 / 23,385527,2020-03-11 20:29:42:354
-0.277727,12.574347,5.372589,8.0,49.82528,24.036968,334.0,NaN,7.704,4.0,235.2,17 / 23,386026,2020-03-11 20:29:42:853
7.153875,-10.223241,-4.989516,8.0,49.82528,24.036968,334.0,NaN,7.704,4.0,235.2,17 / 23,386526,2020-03-11 20:29:43:353
3.773262,9.485827,7.766791,8.0,49.82528,24.036968,334.0,NaN,7.704,4.0,235.2,18 / 23,387026,2020-03-11 20:29:43:853
28.079197,23.640348,11.252748,8.0,49.82528,24.036968,334.0,NaN,7.704,4.0,235.2,18 / 23,387526,2020-03-11 20:29:44:353
8.542512,8.542512,-6.607996,8.0,49.82528,24.036968,334.0,NaN,7.704,4.0,235.2,18 / 23,388026,2020-03-11 20:29:44:853
-3.610456,8.039729,-3.739743,8.0,49.82528,24.036968,334.0,NaN,7.704,4.0,235.2,18 / 23,388526,2020-03-11 20:29:45:353
6.038177,-10.433931,1.01993,8.0,49.82528,24.036968,334.0,NaN,7.704,4.0,235.2,17 / 23,389027,2020-03-11 20:29:45:854
10.400413,4.371813,-4.065354,8.0,49.82528,24.036968,334.0,NaN,7.704,4.0,235.2,17 / 23,389526,2020-03-11 20:29:46:353
-4.989516,5.6982,-0.124498,8.0,49.82528,24.036968,334.0,NaN,7.704,4.0,235.2,17 / 23,390026,2020-03-11 20:29:46:853
-1.374272,-13.742718,0.181959,8.0,49.82528,24.036968,334.0,NaN,7.704,4.0,235.2,17 / 23,390526,2020-03-11 20:29:47:353
15.859192,34.1892,6.995857,8.0,49.82528,24.036968,334.0,NaN,7.704,4.0,235.2,16 / 23,391026,2020-03-11 20:29:47:853
-1.651999,16.759413,10.869676,8.0,49.82528,24.036968,334.0,NaN,7.704,4.0,235.2,16 / 23,391527,2020-03-11 20:29:48:354
5.928044,-8.15465,-3.816357,8.0,49.82528,24.036968,334.0,NaN,7.704,4.0,235.2,16 / 23,392026,2020-03-11 20:29:48:853
0.435745,10.97502,0.976834,8.0,49.82528,24.036968,334.0,NaN,7.704,4.0,235.2,16 / 23,392527,2020-03-11 20:29:49:354
17.669209,19.16319,-8.599973,8.0,49.82528,24.036968,334.0,NaN,7.704,4.0,235.2,16 / 23,393026,2020-03-11 20:29:49:853
9.916783,-14.168885,-3.543418,8.0,49.82528,24.036968,334.0,NaN,7.704,4.0,235.2,16 / 23,393526,2020-03-11 20:29:50:353
3.77805,10.907983,5.43005,8.0,49.82528,24.036968,334.0,NaN,7.704,4.0,235.2,16 / 23,394026,2020-03-11 20:29:50:853
12.708423,2.106898,-9.313444,8.0,49.82528,24.036968,334.0,NaN,7.704,4.0,235.2,16 / 23,394526,2020-03-11 20:29:51:353
29.534872,23.951593,-1.359906,8.0,49.82528,24.036968,334.0,NaN,7.704,4.0,235.2,16 / 23,395026,2020-03-11 20:29:51:853
2.844312,14.571112,10.16578,8.0,49.82528,24.036968,334.0,NaN,7.704,4.0,235.2,16 / 23,395526,2020-03-11 20:29:52:353
7.40766,-16.347609,-1.546654,8.0,49.82528,24.036968,334.0,NaN,7.704,4.0,235.2,16 / 23,396026,2020-03-11 20:29:52:853
-2.75812,6.493075,4.367024,8.0,49.82528,24.036968,334.0,NaN,7.704,4.0,235.2,16 / 23,396527,2020-03-11 20:29:53:354
24.138342,26.700138,9.572019,8.0,49.82528,24.036968,334.0,NaN,7.704,4.0,235.2,18 / 23,397026,2020-03-11 20:29:53:853
10.43872,-12.162544,-2.916138,8.0,49.82528,24.036968,334.0,NaN,7.704,4.0,235.2,18 / 23,397527,2020-03-11 20:29:54:354
1.786075,12.785037,7.144298,8.0,49.82528,24.036968,334.0,NaN,7.704,4.0,235.2,17 / 24,398026,2020-03-11 20:29:54:853
20.60929,31.10068,7.699753,8.0,49.82528,24.036968,334.0,NaN,7.704,4.0,235.2,17 / 24,398526,2020-03-11 20:29:55:353
6.80911,5.951986,-6.584054,8.0,49.82528,24.036968,334.0,NaN,7.704,4.0,235.2,19 / 24,399026,2020-03-11 20:29:55:853
-3.605668,10.170568,-0.991199,8.0,49.82528,24.036968,334.0,NaN,7.704,4.0,235.2,19 / 24,399526,2020-03-11 20:29:56:353
6.229713,-2.920926,-2.705448,8.0,49.82528,24.036968,334.0,NaN,7.704,4.0,235.2,18 / 24,400026,2020-03-11 20:29:56:853
-1.345541,28.898014,4.003105,8.0,49.82528,24.036968,334.0,NaN,7.704,4.0,235.2,18 / 24,400527,2020-03-11 20:29:57:354
1.015142,28.10314,5.137957,8.0,49.82528,24.036968,334.0,NaN,7.704,4.0,235.2,18 / 24,401026,2020-03-11 20:29:57:853
1.398214,-8.135497,-3.303998,8.0,49.82528,24.036968,334.0,NaN,7.704,4.0,235.2,18 / 24,401526,2020-03-11 20:29:58:353
7.575254,32.834084,6.277597,8.0,49.82528,24.036968,334.0,NaN,7.704,4.0,235.2,16 / 22,402026,2020-03-11 20:29:58:853
-0.694318,16.318878,14.164097,8.0,49.82528,24.036968,334.0,NaN,7.704,4.0,235.2,16 / 22,402526,2020-03-11 20:29:59:353
2.887407,-5.597643,-2.671929,8.0,49.82528,24.036968,334.0,NaN,7.704,4.0,235.2,15 / 23,403027,2020-03-11 20:29:59:854
-4.386177,3.816358,-0.258574,8.0,49.82528,24.036968,334.0,NaN,7.704,4.0,235.2,15 / 23,403526,2020-03-11 20:30:00:353
23.161507,6.402096,9.318233,8.0,49.82528,24.036968,334.0,NaN,7.704,4.0,235.2,19 / 23,404026,2020-03-11 20:30:00:853
20.537462,26.580427,15.241488,8.0,49.82528,24.036968,334.0,NaN,7.704,4.0,235.2,19 / 23,404526,2020-03-11 20:30:01:353
-3.65834,14.494497,-0.47884,8.0,49.82528,24.036968,334.0,NaN,7.704,4.0,235.2,18 / 23,405026,2020-03-11 20:30:01:853
7.896077,5.142745,-2.293645,8.0,49.82528,24.036968,334.0,NaN,7.704,4.0,235.2,18 / 23,405526,2020-03-11 20:30:02:353
20.058622,26.81506,6.938397,8.0,49.82528,24.036968,334.0,NaN,7.704,4.0,235.2,16 / 22,406027,2020-03-11 20:30:02:854
-1.383848,15.365987,1.551443,8.0,49.82528,24.036968,334.0,NaN,7.704,4.0,235.2,16 / 22,406526,2020-03-11 20:30:03:353
11.267113,3.045425,1.04866,8.0,49.82528,24.036968,334.0,NaN,7.704,4.0,235.2,16 / 24,407026,2020-03-11 20:30:03:853
-6.756437,2.643199,1.407791,0.0,49.82528,24.036968,334.0,NaN,7.704,4.0,235.2,16 / 24,407527,2020-03-11 20:30:04:354
0.129287,-12.26789,-1.695095,8.0,49.82528,24.036968,334.0,NaN,7.704,4.0,235.2,19 / 24,408026,2020-03-11 20:30:04:853
-2.130839,20.144814,7.963115,8.0,49.82528,24.036968,334.0,NaN,7.704,4.0,235.2,19 / 24,408527,2020-03-11 20:30:05:354
20.221428,37.837963,-2.154781,8.0,49.82528,24.036968,334.0,NaN,7.704,4.0,235.2,18 / 24,409026,2020-03-11 20:30:05:853
3.998317,-9.44752,1.254562,8.0,49.82528,24.036968,334.0,NaN,7.704,4.0,235.2,18 / 24,409526,2020-03-11 20:30:06:353
5.228937,24.636335,3.902549,0.0,49.82528,24.036968,334.0,NaN,7.704,4.0,235.2,18 / 23,410027,2020-03-11 20:30:06:854
0.076614,22.788012,2.82037,8.0,49.82528,24.036968,334.0,NaN,7.704,4.0,235.2,18 / 23,410526,2020-03-11 20:30:07:353
0.761356,-9.595961,-7.378929,8.0,49.82528,24.036968,334.0,NaN,7.704,4.0,235.2,19 / 24,411026,2020-03-11 20:30:07:853
-6.62715,7.216124,-3.031059,8.0,49.82528,24.036968,334.0,NaN,7.704,4.0,235.2,19 / 24,411526,2020-03-11 20:30:08:353
28.629864,9.600749,-11.027693,8.0,49.82528,24.036968,334.0,NaN,7.704,4.0,235.2,20 / 24,412027,2020-03-11 20:30:08:854
17.937359,25.52698,-8.556877,8.0,49.82528,24.036968,334.0,NaN,7.704,4.0,235.2,20 / 24,412526,2020-03-11 20:30:09:353
-4.232949,9.514558,-2.480393,8.0,49.82528,24.036968,334.0,NaN,7.704,4.0,235.2,19 / 24,413027,2020-03-11 20:30:09:854
8.09719,-11.573571,-4.314351,8.0,49.82528,24.036968,334.0,NaN,7.704,4.0,235.2,19 / 24,413526,2020-03-11 20:30:10:353
3.964798,0.986411,0.21069,8.0,49.82528,24.036968,334.0,NaN,7.704,4.0,235.2,19 / 24,414027,2020-03-11 20:30:10:854
-5.353435,5.693412,2.341529,8.0,49.82528,24.036968,334.0,NaN,7.704,4.0,235.2,19 / 24,414526,2020-03-11 20:30:11:353
10.055647,-7.594407,-6.167464,8.0,49.82528,24.036968,334.0,NaN,7.704,4.0,235.2,20 / 24,415026,2020-03-11 20:30:11:853
29.807812,39.188293,14.240712,8.0,49.82528,24.036968,334.0,NaN,7.704,4.0,235.2,20 / 24,415527,2020-03-11 20:30:12:354
1.896208,21.878216,4.472369,8.0,49.82528,24.036968,334.0,NaN,7.704,4.0,235.2,19 / 24,416026,2020-03-11 20:30:12:853
3.514688,-7.010222,-10.821792,8.0,49.82528,24.036968,334.0,NaN,7.704,4.0,235.2,19 / 24,416527,2020-03-11 20:30:13:354
-3.294421,-5.410896,-8.820239,8.0,49.82528,24.036968,334.0,NaN,7.704,4.0,235.2,20 / 24,417026,2020-03-11 20:30:13:853
-1.58975,2.868254,0.871489,8.0,49.82528,24.036968,334.0,NaN,7.704,4.0,235.2,20 / 24,417526,2020-03-11 20:30:14:353
8.542512,-9.969456,-7.240066,8.0,49.82528,24.036968,334.0,NaN,7.704,4.0,235.2,19 / 24,418027,2020-03-11 20:30:14:854
2.552219,8.724471,8.279149,8.0,49.82528,24.036968,334.0,NaN,7.704,4.0,235.2,19 / 24,418526,2020-03-11 20:30:15:353
35.86035,37.814026,2.06859,8.0,49.82528,24.036968,334.0,NaN,7.704,4.0,235.2,20 / 24,419026,2020-03-11 20:30:15:853
4.520253,1.824382,-6.062118,8.0,49.82528,24.036968,334.0,NaN,7.704,4.0,235.2,20 / 24,419526,2020-03-11 20:30:16:353
-4.386177,6.622362,-1.843535,8.0,49.82528,24.036968,334.0,NaN,7.704,4.0,235.2,19 / 25,420026,2020-03-11 20:30:16:853
3.342306,-17.96609,0.205901,8.0,49.82528,24.036968,334.0,NaN,7.704,4.0,235.2,19 / 25,420526,2020-03-11 20:30:17:353
7.757214,27.77274,-4.874594,8.0,49.82528,24.036968,334.0,NaN,7.704,4.0,235.2,19 / 26,421026,2020-03-11 20:30:17:853
16.615759,32.460587,1.704672,8.0,49.82528,24.036968,334.0,NaN,7.704,4.0,235.2,19 / 26,421527,2020-03-11 20:30:18:354
4.807557,3.916914,-1.905785,8.0,49.82528,24.036968,334.0,NaN,7.704,4.0,235.2,19 / 24,422026,2020-03-11 20:30:18:853
9.514558,16.505627,8.556877,8.0,49.82528,24.036968,334.0,NaN,7.704,4.0,235.2,19 / 24,422526,2020-03-11 20:30:19:353
23.118412,37.27293,7.733272,8.0,49.82528,24.036968,334.0,NaN,7.704,4.0,235.2,18 / 25,423026,2020-03-11 20:30:19:853
4.592079,4.118027,-4.740519,8.0,49.82528,24.036968,334.0,NaN,7.704,4.0,235.2,18 / 25,423526,2020-03-11 20:30:20:353
-5.056554,5.813122,-0.205901,8.0,49.82528,24.036968,334.0,NaN,7.704,4.0,235.2,19 / 24,424026,2020-03-11 20:30:20:853
7.120356,-16.122555,-4.644751,8.0,49.82528,24.036968,334.0,NaN,7.704,4.0,235.2,19 / 24,424526,2020-03-11 20:30:21:353
8.949526,18.124107,4.692636,8.0,49.82528,24.036968,334.0,NaN,7.704,4.0,235.2,19 / 24,425026,2020-03-11 20:30:21:853
11.247959,33.901897,5.171476,8.0,49.82528,24.036968,334.0,NaN,7.704,4.0,235.2,19 / 24,425527,2020-03-11 20:30:22:354
2.097321,1.316811,-1.010353,8.0,49.82528,24.036968,334.0,NaN,7.704,4.0,235.2,19 / 26,426026,2020-03-11 20:30:22:853
-9.203311,2.15957,5.329493,8.0,49.82528,24.036968,334.0,NaN,7.704,4.0,235.2,19 / 26,426526,2020-03-11 20:30:23:353
12.612655,30.842106,1.005565,8.0,49.82528,24.036968,334.0,NaN,7.704,4.0,235.2,18 / 26,427026,2020-03-11 20:30:23:853
3.567361,-4.161122,-7.599196,8.0,49.82528,24.036968,334.0,NaN,7.704,4.0,235.2,18 / 26,427526,2020-03-11 20:30:24:353
-4.726154,6.856994,1.11091,8.0,49.82528,24.036968,334.0,NaN,7.704,4.0,235.2,21 / 25,428026,2020-03-11 20:30:24:853
12.435484,-0.608127,-1.977611,8.0,49.82528,24.036968,334.0,NaN,7.704,4.0,235.2,21 / 25,428526,2020-03-11 20:30:25:353
18.344374,34.90746,2.628834,8.0,49.825634,24.035328,328.0,NaN,8.856,2.5,313.5,20 / 26,429026,2020-03-11 20:30:25:853
-4.481945,14.920665,-2.207454,8.0,49.825634,24.035328,328.0,NaN,8.856,2.5,313.5,20 / 26,429527,2020-03-11 20:30:26:354
4.922479,-7.201759,-3.284845,8.0,49.825634,24.035328,328.0,NaN,8.856,2.5,313.5,19 / 26,430026,2020-03-11 20:30:26:853
-2.624045,7.987057,-1.522712,8.0,49.825634,24.035328,328.0,NaN,8.856,2.5,313.5,19 / 26,430526,2020-03-11 20:30:27:353
9.935937,-3.825934,-2.624045,8.0,49.825634,24.035328,328.0,NaN,8.856,2.5,313.5,20 / 26,431026,2020-03-11 20:30:27:853
4.458004,-12.397177,3.1795,8.0,49.825634,24.035328,328.0,NaN,8.856,2.5,313.5,20 / 26,431526,2020-03-11 20:30:28:353
-2.590526,8.75799,6.775591,8.0,49.825634,24.035328,328.0,NaN,8.856,2.5,313.5,19 / 26,432026,2020-03-11 20:30:28:853
22.093693,23.621195,7.953538,8.0,49.825634,24.035328,328.0,NaN,8.856,2.5,313.5,19 / 26,432526,2020-03-11 20:30:29:353
5.995081,11.789049,5.334282,8.0,49.825634,24.035328,328.0,NaN,8.856,2.5,313.5,19 / 24,433026,2020-03-11 20:30:29:853
-6.880935,7.144298,1.005565,8.0,49.825634,24.035328,328.0,NaN,8.856,2.5,313.5,19 / 24,433526,2020-03-11 20:30:30:353
8.169016,-12.540829,1.742979,8.0,49.825634,24.035328,328.0,NaN,8.856,2.5,313.5,20 / 25,434026,2020-03-11 20:30:30:853
0.995988,9.102755,7.982269,8.0,49.825634,24.035328,328.0,NaN,8.856,2.5,313.5,20 / 25,434527,2020-03-11 20:30:31:354
36.425385,34.66804,3.878607,8.0,49.825634,24.035328,328.0,NaN,8.856,2.5,313.5,20 / 25,435026,2020-03-11 20:30:31:853
5.779603,8.887277,-3.409343,8.0,49.825634,24.035328,328.0,NaN,8.856,2.5,313.5,20 / 25,435527,2020-03-11 20:30:32:354
0.718261,10.433931,4.046201,8.0,49.825634,24.035328,328.0,NaN,8.856,2.5,313.5,20 / 25,436026,2020-03-11 20:30:32:853
33.906685,39.188293,13.532028,8.0,49.825634,24.035328,328.0,NaN,8.856,2.5,313.5,20 / 25,436527,2020-03-11 20:30:33:354
13.393165,7.570466,0.23942,8.0,49.825634,24.035328,328.0,NaN,8.856,2.5,313.5,19 / 25,437026,2020-03-11 20:30:33:853
-5.482722,8.954314,-5.133168,8.0,49.825634,24.035328,328.0,NaN,8.856,2.5,313.5,19 / 25,437526,2020-03-11 20:30:34:353
5.396531,-13.512875,-1.101333,8.0,49.825634,24.035328,328.0,NaN,8.856,2.5,313.5,19 / 25,438026,2020-03-11 20:30:34:853
-2.614468,5.013459,9.868899,8.0,49.825634,24.035328,328.0,NaN,8.856,2.5,313.5,19 / 25,438526,2020-03-11 20:30:35:353
13.378799,23.223757,-5.808333,8.0,49.825634,24.035328,328.0,NaN,8.856,2.5,313.5,17 / 25,439026,2020-03-11 20:30:35:853
8.192958,8.8777,-4.683058,8.0,49.825634,24.035328,328.0,NaN,8.856,2.5,313.5,17 / 25,439527,2020-03-11 20:30:36:354
0.560243,8.169016,6.876148,8.0,49.825634,24.035328,328.0,NaN,8.856,2.5,313.5,17 / 25,440026,2020-03-11 20:30:36:853
25.230097,31.421503,-7.062895,8.0,49.825634,24.035328,328.0,NaN,8.856,2.5,313.5,17 / 25,440527,2020-03-11 20:30:37:354
5.497087,9.366117,-2.604891,8.0,49.825634,24.035328,328.0,NaN,8.856,2.5,313.5,20 / 26,441026,2020-03-11 20:30:37:853
-3.691859,9.385271,-3.495534,8.0,49.825634,24.035328,328.0,NaN,8.856,2.5,313.5,20 / 26,441526,2020-03-11 20:30:38:353
9.428367,-9.337387,-0.593762,8.0,49.825634,24.035328,328.0,NaN,8.856,2.5,313.5,15 / 26,442027,2020-03-11 20:30:38:854
-4.419696,6.785168,0.881066,8.0,49.825634,24.035328,328.0,NaN,8.856,2.5,313.5,15 / 26,442526,2020-03-11 20:30:39:353
27.461494,28.543673,-2.801216,8.0,49.825634,24.035328,328.0,NaN,8.856,2.5,313.5,17 / 26,443027,2020-03-11 20:30:39:854
15.768212,8.729259,-0.306458,8.0,49.825634,24.035328,328.0,NaN,8.856,2.5,313.5,17 / 26,443526,2020-03-11 20:30:40:353
2.494758,8.652645,7.043741,8.0,49.825634,24.035328,328.0,NaN,8.856,2.5,313.5,18 / 24,444027,2020-03-11 20:30:40:854
25.124752,30.751127,-2.834735,8.0,49.825634,24.035328,328.0,NaN,8.856,2.5,313.5,18 / 24,444526,2020-03-11 20:30:41:353
11.401189,11.678916,-1.01993,8.0,49.825634,24.035328,328.0,NaN,8.856,2.5,313.5,19 / 25,445026,2020-03-11 20:30:41:853
-4.663905,9.490616,-1.891419,8.0,49.825634,24.035328,328.0,NaN,8.856,2.5,313.5,19 / 25,445526,2020-03-11 20:30:42:353
5.568913,-13.086706,4.817134,8.0,49.825634,24.035328,328.0,NaN,8.856,2.5,313.5,16 / 24,446026,2020-03-11 20:30:42:853
-2.221819,6.555324,4.323929,8.0,49.825634,24.035328,328.0,NaN,8.856,2.5,313.5,16 / 24,446526,2020-03-11 20:30:43:353
5.104438,15.203181,-9.476251,8.0,49.825634,24.035328,328.0,NaN,8.856,2.5,313.5,17 / 24,447026,2020-03-11 20:30:43:853
13.062764,16.146496,0.043096,8.0,49.825634,24.035328,328.0,NaN,8.856,2.5,313.5,17 / 24,447527,2020-03-11 20:30:44:354
-3.562572,10.639832,-1.04866,8.0,49.825634,24.035328,328.0,NaN,8.856,2.5,313.5,20 / 25,448026,2020-03-11 20:30:44:853
11.142614,24.492683,-7.594407,8.0,49.825634,24.035328,328.0,NaN,8.856,2.5,313.5,20 / 25,448527,2020-03-11 20:30:45:354
13.991714,16.649279,6.488287,8.0,49.825634,24.035328,328.0,NaN,8.856,2.5,313.5,20 / 26,449027,2020-03-11 20:30:45:854
-2.624045,11.310209,-3.979163,8.0,49.825634,24.035328,328.0,NaN,8.856,2.5,313.5,20 / 26,449526,2020-03-11 20:30:46:353
6.47871,-14.930242,-3.074155,8.0,49.825634,24.035328,328.0,NaN,8.856,2.5,313.5,18 / 25,450026,2020-03-11 20:30:46:853
7.23049,13.029245,-1.278504,8.0,49.825634,24.035328,328.0,NaN,8.856,2.5,313.5,18 / 25,450526,2020-03-11 20:30:47:353
34.52918,38.87705,-0.114922,8.0,49.825634,24.035328,328.0,NaN,8.856,2.5,313.5,19 / 26,451027,2020-03-11 20:30:47:854
14.805743,0.986411,3.576938,8.0,49.825634,24.035328,328.0,NaN,8.856,2.5,313.5,19 / 26,451526,2020-03-11 20:30:48:353
-5.51624,4.429273,-0.804452,8.0,49.825634,24.035328,328.0,NaN,8.856,2.5,313.5,18 / 26,452026,2020-03-11 20:30:48:853
30.243555,39.178715,-7.699753,8.0,49.825634,24.035328,328.0,NaN,8.856,2.5,313.5,18 / 26,452526,2020-03-11 20:30:49:353
8.801085,9.720459,-2.566584,8.0,49.825634,24.035328,328.0,NaN,8.856,2.5,313.5,17 / 25,453026,2020-03-11 20:30:49:853
-9.457097,5.157111,-1.910573,8.0,49.825634,24.035328,328.0,NaN,8.856,2.5,313.5,17 / 25,453527,2020-03-11 20:30:50:354
8.283938,-10.572795,0.416591,8.0,49.825634,24.035328,328.0,NaN,8.856,2.5,313.5,18 / 25,454026,2020-03-11 20:30:50:853
3.380613,20.321983,8.724471,8.0,49.825634,24.035328,328.0,NaN,8.856,2.5,313.5,18 / 25,454527,2020-03-11 20:30:51:354
0.158017,27.6243,-4.3766,8.0,49.825634,24.035328,328.0,NaN,8.856,2.5,313.5,19 / 26,455026,2020-03-11 20:30:51:853
1.388637,2.054225,1.23062,8.0,49.825634,24.035328,328.0,NaN,8.856,2.5,313.5,19 / 26,455526,2020-03-11 20:30:52:353
-5.880159,5.410896,-1.292869,8.0,49.825634,24.035328,328.0,NaN,8.856,2.5,313.5,16 / 25,456027,2020-03-11 20:30:52:854
4.156334,22.179884,20.599712,8.0,49.825634,24.035328,328.0,NaN,8.856,2.5,313.5,16 / 25,456526,2020-03-11 20:30:53:353
2.365471,11.789049,-3.476381,0.0,49.825634,24.035328,328.0,NaN,8.856,2.5,313.5,17 / 26,457026,2020-03-11 20:30:53:853
-5.15711,6.976704,2.70066,8.0,49.825634,24.035328,328.0,NaN,8.856,2.5,313.5,17 / 26,457526,2020-03-11 20:30:54:353
7.225701,-10.448297,-1.493982,8.0,49.825634,24.035328,328.0,NaN,8.856,2.5,313.5,17 / 26,458026,2020-03-11 20:30:54:853
6.38773,15.820885,8.992621,8.0,49.825634,24.035328,328.0,NaN,8.856,2.5,313.5,17 / 26,458527,2020-03-11 20:30:55:354
18.871098,33.576286,0.277727,8.0,49.825634,24.035328,328.0,NaN,8.856,2.5,313.5,18 / 26,459026,2020-03-11 20:30:55:853
8.259996,5.78918,-1.94888,8.0,49.825634,24.035328,328.0,NaN,8.856,2.5,313.5,18 / 26,459526,2020-03-11 20:30:56:353
-6.478709,7.833828,-5.707777,8.0,49.825634,24.035328,328.0,NaN,8.856,2.5,313.5,16 / 25,460026,2020-03-11 20:30:56:853
15.897499,27.490225,0.770933,8.0,49.825634,24.035328,328.0,NaN,8.856,2.5,313.5,16 / 25,460526,2020-03-11 20:30:57:353
6.05733,9.093178,-3.581726,8.0,49.825634,24.035328,328.0,NaN,8.856,2.5,313.5,19 / 24,461027,2020-03-11 20:30:57:854
-3.792415,8.944737,-2.221819,8.0,49.825634,24.035328,328.0,NaN,8.856,2.5,313.5,19 / 24,461526,2020-03-11 20:30:58:353
8.762778,-13.608643,-0.368707,8.0,49.825634,24.035328,328.0,NaN,8.856,2.5,313.5,20 / 26,462026,2020-03-11 20:30:58:853
1.810017,16.601395,10.328587,8.0,49.825634,24.035328,328.0,NaN,8.856,2.5,313.5,20 / 26,462526,2020-03-11 20:30:59:353
23.96117,35.261803,6.938397,8.0,49.825634,24.035328,328.0,NaN,8.856,2.5,313.5,20 / 26,463026,2020-03-11 20:30:59:853
5.181053,7.723695,0.052672,8.0,49.825634,24.035328,328.0,NaN,8.856,2.5,313.5,20 / 26,463526,2020-03-11 20:31:00:353
-4.58729,7.292739,-1.216254,8.0,49.825634,24.035328,328.0,NaN,8.856,2.5,313.5,17 / 26,464026,2020-03-11 20:31:00:853
29.544449,32.168495,9.059659,8.0,49.825634,24.035328,328.0,NaN,8.856,2.5,313.5,17 / 26,464526,2020-03-11 20:31:01:353
9.112331,13.402741,-0.679953,8.0,49.825634,24.035328,328.0,NaN,8.856,2.5,313.5,18 / 26,465026,2020-03-11 20:31:01:853
-3.878607,7.613562,-0.837971,8.0,49.825634,24.035328,328.0,NaN,8.856,2.5,313.5,18 / 26,465526,2020-03-11 20:31:02:353
3.1795,-15.629349,0.627281,8.0,49.825634,24.035328,328.0,NaN,8.856,2.5,313.5,19 / 24,466027,2020-03-11 20:31:02:854
3.792416,21.5957,5.027824,8.0,49.825634,24.035328,328.0,NaN,8.856,2.5,313.5,19 / 24,466526,2020-03-11 20:31:03:353
14.408306,29.965828,7.556101,8.0,49.825634,24.035328,328.0,NaN,8.856,2.5,313.5,17 / 23,467026,2020-03-11 20:31:03:853
8.968679,0.402226,-5.161899,8.0,49.825634,24.035328,328.0,NaN,8.856,2.5,313.5,17 / 23,467526,2020-03-11 20:31:04:353
-5.63595,3.897761,-1.35033,8.0,49.825634,24.035328,328.0,NaN,8.856,2.5,313.5,19 / 24,468026,2020-03-11 20:31:04:853
-0.052672,-13.129802,-3.29921,8.0,49.825634,24.035328,328.0,NaN,8.856,2.5,313.5,19 / 24,468526,2020-03-11 20:31:05:353
3.883395,-2.662352,-5.032612,8.0,49.825634,24.035328,328.0,NaN,8.856,2.5,313.5,19 / 24,469026,2020-03-11 20:31:05:853
-4.783615,5.947197,3.864242,8.0,49.825634,24.035328,328.0,NaN,8.856,2.5,313.5,19 / 24,469527,2020-03-11 20:31:06:354
25.948359,10.089166,-3.859453,8.0,49.825634,24.035328,328.0,NaN,8.856,2.5,313.5,19 / 24,470026,2020-03-11 20:31:06:853
17.697939,23.065739,-2.351106,8.0,49.825634,24.035328,328.0,NaN,8.856,2.5,313.5,19 / 24,470526,2020-03-11 20:31:07:353
-6.133945,9.648633,-0.459687,8.0,49.825634,24.035328,328.0,NaN,8.856,2.5,313.5,18 / 24,471026,2020-03-11 20:31:07:853
5.224149,-14.231135,-2.801216,8.0,49.825634,24.035328,328.0,NaN,8.856,2.5,313.5,18 / 24,471526,2020-03-11 20:31:08:353
-4.189853,11.319786,21.461624,8.0,49.825634,24.035328,328.0,NaN,8.856,2.5,313.5,17 / 22,472026,2020-03-11 20:31:08:853
17.520767,20.278889,-6.076483,8.0,49.825634,24.035328,328.0,NaN,8.856,2.5,313.5,17 / 22,472526,2020-03-11 20:31:09:353
5.137957,-11.851298,2.164359,8.0,49.825634,24.035328,328.0,NaN,8.856,2.5,313.5,18 / 22,473026,2020-03-11 20:31:09:853
-2.063802,8.537724,4.357447,8.0,49.825634,24.035328,328.0,NaN,8.856,2.5,313.5,18 / 22,473526,2020-03-11 20:31:10:353
17.78892,32.50368,15.399506,8.0,49.825634,24.035328,328.0,NaN,8.856,2.5,313.5,18 / 22,474026,2020-03-11 20:31:10:853
5.176265,8.772355,-2.284068,8.0,49.825634,24.035328,328.0,NaN,8.856,2.5,313.5,18 / 22,474526,2020-03-11 20:31:11:353
-6.009446,4.970363,1.790863,8.0,49.825634,24.035328,328.0,NaN,8.856,2.5,313.5,17 / 22,475026,2020-03-11 20:31:11:853
7.254431,-8.681376,-2.839523,8.0,49.825634,24.035328,328.0,NaN,8.856,2.5,313.5,17 / 22,475526,2020-03-11 20:31:12:353
2.504335,13.9151,14.255077,8.0,49.825634,24.035328,328.0,NaN,8.856,2.5,313.5,17 / 22,476026,2020-03-11 20:31:12:853
21.748928,32.63297,-2.643199,8.0,49.825634,24.035328,328.0,NaN,8.856,2.5,313.5,17 / 22,476527,2020-03-11 20:31:13:354
10.352529,2.116475,-5.090072,8.0,49.826447,24.03401,327.0,NaN,9.468,2.5,269.9,18 / 22,477026,2020-03-11 20:31:13:853
-2.408567,4.481946,-3.399766,8.0,49.826447,24.03401,327.0,NaN,9.468,2.5,269.9,18 / 22,477527,2020-03-11 20:31:14:354
6.904878,18.56464,-0.248997,8.0,49.826447,24.03401,327.0,NaN,9.468,2.5,269.9,18 / 22,478026,2020-03-11 20:31:14:853
-7.40766,10.093954,3.979163,8.0,49.826447,24.03401,327.0,NaN,9.468,2.5,269.9,18 / 22,478526,2020-03-11 20:31:15:353
6.373365,1.714248,0.220267,8.0,49.826447,24.03401,327.0,NaN,9.468,2.5,269.9,20 / 22,479027,2020-03-11 20:31:15:854
25.019407,10.927136,-28.088774,8.0,49.826447,24.03401,327.0,NaN,9.468,2.5,269.9,20 / 22,479526,2020-03-11 20:31:16:353
24.966736,1.608904,24.942793,8.0,49.826447,24.03401,327.0,NaN,9.468,2.5,269.9,20 / 22,480027,2020-03-11 20:31:16:854
5.013459,19.258959,9.878476,8.0,49.826447,24.03401,327.0,NaN,9.468,2.5,269.9,20 / 22,480526,2020-03-11 20:31:17:353
3.385401,-6.521805,-4.534618,8.0,49.826447,24.03401,327.0,NaN,9.468,2.5,269.9,19 / 22,481026,2020-03-11 20:31:17:853
-2.322375,6.742072,5.865794,8.0,49.826447,24.03401,327.0,NaN,9.468,2.5,269.9,19 / 22,481526,2020-03-11 20:31:18:353
3.126828,21.911734,7.369353,8.0,49.826447,24.03401,327.0,NaN,9.468,2.5,269.9,20 / 22,482026,2020-03-11 20:31:18:853
2.470816,-2.600103,-4.979939,8.0,49.826447,24.03401,327.0,NaN,9.468,2.5,269.9,20 / 22,482527,2020-03-11 20:31:19:354
-3.586514,5.540183,3.998317,8.0,49.826447,24.03401,327.0,NaN,9.468,2.5,269.9,19 / 22,483026,2020-03-11 20:31:19:853
9.054871,0.852336,2.116475,8.0,49.826447,24.03401,327.0,NaN,9.468,2.5,269.9,19 / 22,483526,2020-03-11 20:31:20:353
19.761742,26.479872,15.126566,8.0,49.826447,24.03401,327.0,NaN,9.468,2.5,269.9,20 / 22,484026,2020-03-11 20:31:20:853
0.023942,11.621455,-1.934515,8.0,49.826447,24.03401,327.0,NaN,9.468,2.5,269.9,20 / 22,484526,2020-03-11 20:31:21:353
3.830723,-11.789049,-5.841852,8.0,49.826447,24.03401,327.0,NaN,9.468,2.5,269.9,19 / 22,485026,2020-03-11 20:31:21:853
0.794875,7.685388,1.407791,8.0,49.826447,24.03401,327.0,NaN,9.468,2.5,269.9,19 / 22,485526,2020-03-11 20:31:22:353
-2.777274,11.822568,-3.098097,8.0,49.826447,24.03401,327.0,NaN,9.468,2.5,269.9,19 / 22,486026,2020-03-11 20:31:22:853
4.836288,-9.279925,-2.226607,8.0,49.826447,24.03401,327.0,NaN,9.468,2.5,269.9,19 / 22,486526,2020-03-11 20:31:23:353
-2.154781,6.727707,2.590526,8.0,49.826447,24.03401,327.0,NaN,9.468,2.5,269.9,19 / 23,487027,2020-03-11 20:31:23:854
19.139248,8.805874,-5.252878,8.0,49.826447,24.03401,327.0,NaN,9.468,2.5,269.9,19 / 23,487526,2020-03-11 20:31:24:353
25.52219,21.279663,0.622492,8.0,49.826447,24.03401,327.0,NaN,9.468,2.5,269.9,19 / 23,488027,2020-03-11 20:31:24:854
4.817134,18.119318,-3.145981,8.0,49.826447,24.03401,327.0,NaN,9.468,2.5,269.9,19 / 23,488526,2020-03-11 20:31:25:353
4.031836,-9.370906,-6.689399,8.0,49.826447,24.03401,327.0,NaN,9.468,2.5,269.9,19 / 23,489026,2020-03-11 20:31:25:853
-0.086191,6.756438,11.856087,8.0,49.826447,24.03401,327.0,NaN,9.468,2.5,269.9,19 / 23,489527,2020-03-11 20:31:26:354
10.175357,7.029376,-8.226476,8.0,49.826447,24.03401,327.0,NaN,9.468,2.5,269.9,19 / 23,490026,2020-03-11 20:31:26:853
3.950433,-4.922478,-2.873042,8.0,49.826447,24.03401,327.0,NaN,9.468,2.5,269.9,19 / 23,490526,2020-03-11 20:31:27:353
0.344765,5.056554,7.264008,8.0,49.826447,24.03401,327.0,NaN,9.468,2.5,269.9,19 / 23,491027,2020-03-11 20:31:27:854
5.770026,-0.474052,1.431733,8.0,49.826447,24.03401,327.0,NaN,9.468,2.5,269.9,19 / 23,491526,2020-03-11 20:31:28:353
27.461494,29.132647,2.035071,8.0,49.826447,24.03401,327.0,NaN,9.468,2.5,269.9,19 / 23,492027,2020-03-11 20:31:28:854
8.092402,21.662737,-1.331176,8.0,49.826447,24.03401,327.0,NaN,9.468,2.5,269.9,19 / 23,492526,2020-03-11 20:31:29:353
1.719037,-4.390966,-8.169016,8.0,49.826447,24.03401,327.0,NaN,9.468,2.5,269.9,19 / 23,493027,2020-03-11 20:31:29:854
-5.865794,3.567361,5.248091,8.0,49.826447,24.03401,327.0,NaN,9.468,2.5,269.9,19 / 23,493526,2020-03-11 20:31:30:353
4.343082,-3.715801,-3.069367,8.0,49.826447,24.03401,327.0,NaN,9.468,2.5,269.9,19 / 23,494026,2020-03-11 20:31:30:853
-0.56982,-12.598289,8.513782,8.0,49.826447,24.03401,327.0,NaN,9.468,2.5,269.9,19 / 23,494527,2020-03-11 20:31:31:354
-4.687847,3.423709,3.136404,8.0,49.826447,24.03401,327.0,NaN,9.468,2.5,269.9,19 / 23,495026,2020-03-11 20:31:31:853
11.008539,15.658079,-5.923255,8.0,49.826447,24.03401,327.0,NaN,9.468,2.5,269.9,19 / 23,495526,2020-03-11 20:31:32:353
16.002844,25.560497,-4.970362,8.0,49.826447,24.03401,327.0,NaN,9.468,2.5,269.9,19 / 22,496026,2020-03-11 20:31:32:853
-0.416591,16.548721,9.346964,8.0,49.826447,24.03401,327.0,NaN,9.468,2.5,269.9,19 / 22,496526,2020-03-11 20:31:33:353
2.413355,-1.273715,-0.248997,8.0,49.826447,24.03401,327.0,NaN,9.468,2.5,269.9,19 / 22,497026,2020-03-11 20:31:33:853
0.134075,5.837064,2.691083,8.0,49.826447,24.03401,327.0,NaN,9.468,2.5,269.9,19 / 22,497526,2020-03-11 20:31:34:353
3.979163,-3.270479,3.327941,8.0,49.826447,24.03401,327.0,NaN,9.468,2.5,269.9,19 / 22,498026,2020-03-11 20:31:34:853
4.448427,5.66947,-2.628833,8.0,49.826447,24.03401,327.0,NaN,9.468,2.5,269.9,19 / 22,498526,2020-03-11 20:31:35:353
-1.297657,7.943961,1.996764,8.0,49.826447,24.03401,327.0,NaN,9.468,2.5,269.9,19 / 22,499026,2020-03-11 20:31:35:853
9.385271,-3.380613,0.881066,8.0,49.826447,24.03401,327.0,NaN,9.468,2.5,269.9,19 / 22,499526,2020-03-11 20:31:36:353
17.48246,24.669855,6.253655,8.0,49.826447,24.03401,327.0,NaN,9.468,2.5,269.9,19 / 22,500026,2020-03-11 20:31:36:853
15.758636,20.93011,-1.987187,8.0,49.826447,24.03401,327.0,NaN,9.468,2.5,269.9,19 / 22,500526,2020-03-11 20:31:37:353
5.051766,-4.414908,-5.33907,8.0,49.826447,24.03401,327.0,NaN,9.468,2.5,269.9,19 / 22,501027,2020-03-11 20:31:37:854
-0.727837,4.841076,0.579397,8.0,49.826447,24.03401,327.0,NaN,9.468,2.5,269.9,19 / 22,501526,2020-03-11 20:31:38:353
0.158017,-7.97748,1.369483,8.0,49.826447,24.03401,327.0,NaN,9.468,2.5,269.9,19 / 22,502027,2020-03-11 20:31:38:854
3.543419,19.211075,3.356671,8.0,49.826447,24.03401,327.0,NaN,9.468,2.5,269.9,19 / 22,502526,2020-03-11 20:31:39:353
11.84651,23.42487,4.793192,8.0,49.826447,24.03401,327.0,NaN,9.468,2.5,269.9,19 / 22,503026,2020-03-11 20:31:39:853
6.229713,-5.760449,-2.336741,8.0,49.826447,24.03401,327.0,NaN,9.468,2.5,269.9,19 / 22,503526,2020-03-11 20:31:40:353
-4.381389,6.038177,8.552089,8.0,49.826447,24.03401,327.0,NaN,9.468,2.5,269.9,19 / 22,504026,2020-03-11 20:31:40:853
15.418659,21.887793,0.699107,8.0,49.826447,24.03401,327.0,NaN,9.468,2.5,269.9,19 / 22,504527,2020-03-11 20:31:41:354
5.722142,9.983821,-5.918466,8.0,49.826447,24.03401,327.0,NaN,9.468,2.5,269.9,19 / 22,505026,2020-03-11 20:31:41:853
-3.864241,5.334282,5.305551,8.0,49.826447,24.03401,327.0,NaN,9.468,2.5,269.9,19 / 22,505526,2020-03-11 20:31:42:353
9.476251,-8.896853,1.637634,8.0,49.826447,24.03401,327.0,NaN,9.468,2.5,269.9,19 / 22,506026,2020-03-11 20:31:42:853
6.172252,12.162544,3.318364,8.0,49.826447,24.03401,327.0,NaN,9.468,2.5,269.9,19 / 22,506526,2020-03-11 20:31:43:353
22.045809,27.07842,2.03986,8.0,49.826447,24.03401,327.0,NaN,9.468,2.5,269.9,19 / 22,507027,2020-03-11 20:31:43:854
5.123592,12.966996,7.513005,8.0,49.826447,24.03401,327.0,NaN,9.468,2.5,269.9,19 / 22,507526,2020-03-11 20:31:44:353
-1.331176,8.298303,9.801862,8.0,49.826447,24.03401,327.0,NaN,9.468,2.5,269.9,19 / 22,508026,2020-03-11 20:31:44:853
15.557523,17.918205,-3.567361,8.0,49.826447,24.03401,327.0,NaN,9.468,2.5,269.9,19 / 22,508526,2020-03-11 20:31:45:353
4.520253,3.236961,-10.687716,8.0,49.826447,24.03401,327.0,NaN,9.468,2.5,269.9,19 / 22,509026,2020-03-11 20:31:45:853
-4.568136,6.986281,1.905785,8.0,49.826447,24.03401,327.0,NaN,9.468,2.5,269.9,19 / 22,509527,2020-03-11 20:31:46:354
6.799533,-7.455544,-7.206547,8.0,49.826447,24.03401,327.0,NaN,9.468,2.5,269.9,19 / 22,510026,2020-03-11 20:31:46:853
3.490746,10.922348,6.277597,8.0,49.826447,24.03401,327.0,NaN,9.468,2.5,269.9,19 / 22,510526,2020-03-11 20:31:47:353
15.136143,18.899828,-1.786074,8.0,49.826447,24.03401,327.0,NaN,9.468,2.5,269.9,19 / 23,511026,2020-03-11 20:31:47:853
8.48984,13.168109,2.997541,8.0,49.826447,24.03401,327.0,NaN,9.468,2.5,269.9,19 / 23,511526,2020-03-11 20:31:48:353
-2.025495,7.963115,9.299079,8.0,49.826447,24.03401,327.0,NaN,9.468,2.5,269.9,18 / 23,512026,2020-03-11 20:31:48:853
17.00841,13.819332,1.632846,8.0,49.826447,24.03401,327.0,NaN,9.468,2.5,269.9,18 / 23,512527,2020-03-11 20:31:49:354
15.030798,14.346057,2.762909,8.0,49.826447,24.03401,327.0,NaN,9.468,2.5,269.9,19 / 23,513026,2020-03-11 20:31:49:853
