ACCELEROMETER X (m/s²),ACCELEROMETER Y (m/s²),ACCELEROMETER Z (m/s²),PROXIMITY (m),LOCATION Latitude : ,LOCATION Longitude : ,LOCATION Altitude ( m),LOCATION Altitude-google ( m),LOCATION Speed ( Kmh),LOCATION Accuracy ( m),LOCATION ORIENTATION (°),Satellites in range,Time since start in ms ,YYYY-MO-DD HH-MI-SS_SSS
-4.151545,1.781286,2.173935,8.0,49.82906,24.045338,336.0,NaN,7.704,8.5,316.9,16 / 17,38,2020-03-20 15:43:03:754
2.020706,3.706224,9.921572,8.0,49.82906,24.045338,336.0,NaN,7.704,8.5,316.9,16 / 17,538,2020-03-20 15:43:04:254
1.762132,4.242526,8.078037,8.0,49.82906,24.045338,336.0,NaN,7.704,8.5,316.9,17 / 17,1039,2020-03-20 15:43:04:755
-0.445322,11.080365,6.756438,8.0,49.82906,24.045338,336.0,NaN,7.704,8.5,316.9,17 / 17,1539,2020-03-20 15:43:05:255
5.573702,13.43626,15.05474,8.0,49.82906,24.045338,336.0,NaN,7.704,8.5,316.9,18 / 18,2038,2020-03-20 15:43:05:754
1.781286,3.854665,7.685388,8.0,49.82906,24.045338,336.0,NaN,7.704,8.5,316.9,18 / 18,2539,2020-03-20 15:43:06:255
-4.941632,3.677494,4.376601,8.0,49.82906,24.045338,336.0,NaN,7.704,8.5,316.9,18 / 18,3039,2020-03-20 15:43:06:755
6.416461,-3.1795,-2.197877,8.0,49.82906,24.045338,336.0,NaN,7.704,8.5,316.9,18 / 18,3538,2020-03-20 15:43:07:254
18.780119,19.091364,25.775976,8.0,49.82906,24.045338,336.0,NaN,7.704,8.5,316.9,18 / 19,4039,2020-03-20 15:43:07:755
4.007894,13.273455,5.683835,8.0,49.82906,24.045338,336.0,NaN,7.704,8.5,316.9,18 / 19,4539,2020-03-20 15:43:08:255
0.004788,-8.925584,-4.19943,8.0,49.82906,24.045338,336.0,NaN,7.704,8.5,316.9,19 / 20,5039,2020-03-20 15:43:08:755
9.552865,6.196194,15.389929,8.0,49.82906,24.045338,336.0,NaN,7.704,8.5,316.9,19 / 20,5538,2020-03-20 15:43:09:254
2.853889,8.197747,11.425131,8.0,49.82906,24.045338,336.0,NaN,7.704,8.5,316.9,20 / 20,6038,2020-03-20 15:43:09:754
3.394978,-9.375694,-2.892196,8.0,49.82906,24.045338,336.0,NaN,7.704,8.5,316.9,20 / 20,6538,2020-03-20 15:43:10:254
7.196971,9.878476,0.718261,8.0,49.82906,24.045338,336.0,NaN,7.704,8.5,316.9,17 / 20,7038,2020-03-20 15:43:10:754
18.904617,15.370775,16.184803,8.0,49.82906,24.045338,336.0,NaN,7.704,8.5,316.9,17 / 20,7538,2020-03-20 15:43:11:254
2.978387,-0.948104,2.221819,8.0,49.82906,24.045338,336.0,NaN,7.704,8.5,316.9,19 / 20,8039,2020-03-20 15:43:11:755
0.430956,8.872911,2.475605,8.0,49.82906,24.045338,336.0,NaN,7.704,8.5,316.9,19 / 20,8539,2020-03-20 15:43:12:255
13.924677,6.224925,0.890643,8.0,49.82906,24.045338,336.0,NaN,7.704,8.5,316.9,20 / 20,9039,2020-03-20 15:43:12:755
1.58975,-6.933608,-4.003105,8.0,49.82906,24.045338,336.0,NaN,7.704,8.5,316.9,20 / 20,9538,2020-03-20 15:43:13:254
1.733402,7.268797,2.662352,8.0,49.82906,24.045338,336.0,NaN,7.704,8.5,316.9,20 / 20,10038,2020-03-20 15:43:13:754
22.141577,17.166426,7.196971,8.0,49.82906,24.045338,336.0,NaN,7.704,8.5,316.9,20 / 20,10539,2020-03-20 15:43:14:255
2.75812,-0.138864,4.644751,8.0,49.82906,24.045338,336.0,NaN,7.704,8.5,316.9,18 / 20,11038,2020-03-20 15:43:14:754
-2.566584,4.582502,11.377247,8.0,49.82906,24.045338,336.0,NaN,7.704,8.5,316.9,18 / 20,11538,2020-03-20 15:43:15:254
22.720974,5.401319,2.413355,8.0,49.82906,24.045338,336.0,NaN,7.704,8.5,316.9,19 / 20,12038,2020-03-20 15:43:15:754
21.86385,12.014104,8.130709,8.0,49.82906,24.045338,336.0,NaN,7.704,8.5,316.9,19 / 20,12539,2020-03-20 15:43:16:255
-3.232172,7.479486,2.116475,8.0,49.82906,24.045338,336.0,NaN,7.704,8.5,316.9,18 / 20,13039,2020-03-20 15:43:16:755
-1.819593,-16.778566,-3.552995,8.0,49.82906,24.045338,336.0,NaN,7.704,8.5,316.9,18 / 20,13538,2020-03-20 15:43:17:254
4.161122,18.50239,9.562442,8.0,49.82906,24.045338,336.0,NaN,7.704,8.5,316.9,19 / 21,14038,2020-03-20 15:43:17:754
-0.258574,9.414001,3.96001,8.0,49.82906,24.045338,336.0,NaN,7.704,8.5,316.9,19 / 21,14539,2020-03-20 15:43:18:255
12.483368,13.421895,3.318364,8.0,49.82906,24.045338,336.0,NaN,7.704,8.5,316.9,20 / 21,15039,2020-03-20 15:43:18:755
10.405201,8.322245,1.398214,8.0,49.82906,24.045338,336.0,NaN,7.704,8.5,316.9,20 / 21,15539,2020-03-20 15:43:19:255
-7.220912,8.010999,0.052672,8.0,49.82906,24.045338,336.0,NaN,7.704,8.5,316.9,20 / 21,16039,2020-03-20 15:43:19:755
25.914839,0.799663,8.872911,8.0,49.82906,24.045338,336.0,NaN,7.704,8.5,316.9,20 / 21,16539,2020-03-20 15:43:20:255
23.860615,14.264654,6.952762,8.0,49.82906,24.045338,336.0,NaN,7.704,8.5,316.9,17 / 21,17038,2020-03-20 15:43:20:754
0.622492,10.635044,-6.234501,8.0,49.82906,24.045338,336.0,NaN,7.704,8.5,316.9,17 / 21,17538,2020-03-20 15:43:21:254
-10.994174,-20.269312,-2.145205,8.0,49.82906,24.045338,336.0,NaN,7.704,8.5,316.9,18 / 21,18038,2020-03-20 15:43:21:754
5.78918,12.411542,4.616021,8.0,49.82906,24.045338,336.0,NaN,7.704,8.5,316.9,18 / 21,18539,2020-03-20 15:43:22:255
-3.126827,5.659893,2.384625,8.0,49.82906,24.045338,336.0,NaN,7.704,8.5,316.9,18 / 21,19038,2020-03-20 15:43:22:754
17.262194,-0.699107,-3.586514,8.0,49.82906,24.045338,336.0,NaN,7.704,8.5,316.9,18 / 21,19538,2020-03-20 15:43:23:254
22.031445,18.406622,1.537078,8.0,49.82906,24.045338,336.0,NaN,7.704,8.5,316.9,18 / 21,20038,2020-03-20 15:43:23:754
3.60088,12.368446,2.217031,8.0,49.82906,24.045338,336.0,NaN,7.704,8.5,316.9,18 / 21,20538,2020-03-20 15:43:24:254
-0.354342,-13.206416,-7.254431,8.0,49.82906,24.045338,336.0,NaN,7.704,8.5,316.9,20 / 21,21039,2020-03-20 15:43:24:755
8.245631,21.691467,7.599196,8.0,49.82906,24.045338,336.0,NaN,7.704,8.5,316.9,20 / 21,21538,2020-03-20 15:43:25:254
18.641254,21.638796,5.31034,8.0,49.82906,24.045338,336.0,NaN,7.704,8.5,316.9,18 / 21,22038,2020-03-20 15:43:25:754
4.381389,-6.076483,-3.620033,8.0,49.82906,24.045338,336.0,NaN,7.704,8.5,316.9,18 / 21,22539,2020-03-20 15:43:26:255
26.499025,26.015396,11.324574,8.0,49.82906,24.045338,336.0,NaN,7.704,8.5,316.9,20 / 21,23039,2020-03-20 15:43:26:755
4.003105,13.723564,-0.924162,8.0,49.82906,24.045338,336.0,NaN,7.704,8.5,316.9,20 / 21,23538,2020-03-20 15:43:27:254
3.284845,-16.749836,-2.643199,8.0,49.82906,24.045338,336.0,NaN,7.704,8.5,316.9,19 / 21,24038,2020-03-20 15:43:27:754
2.231396,8.90643,5.319916,8.0,49.82906,24.045338,336.0,NaN,7.704,8.5,316.9,19 / 21,24539,2020-03-20 15:43:28:255
17.223886,27.159824,-2.355894,8.0,49.82906,24.045338,336.0,NaN,7.704,8.5,316.9,19 / 21,25039,2020-03-20 15:43:28:755
2.844312,3.471593,-6.253655,8.0,49.82906,24.045338,336.0,NaN,7.704,8.5,316.9,19 / 21,25539,2020-03-20 15:43:29:255
-3.169923,5.956774,-0.277727,8.0,49.82906,24.045338,336.0,NaN,7.704,8.5,316.9,20 / 21,26039,2020-03-20 15:43:29:755
8.734048,-13.522451,5.090073,8.0,49.82906,24.045338,336.0,NaN,7.704,8.5,316.9,20 / 21,26538,2020-03-20 15:43:30:254
-1.225831,-13.354857,-4.884171,8.0,49.82906,24.045338,336.0,NaN,7.704,8.5,316.9,19 / 21,27038,2020-03-20 15:43:30:754
0.02873,11.774684,7.532159,8.0,49.82906,24.045338,336.0,NaN,7.704,8.5,316.9,19 / 21,27538,2020-03-20 15:43:31:254
21.547815,21.341913,-2.011129,8.0,49.82906,24.045338,336.0,NaN,7.704,8.5,316.9,20 / 21,28038,2020-03-20 15:43:31:754
8.145074,7.70933,-2.561796,8.0,49.82906,24.045338,336.0,NaN,7.704,8.5,316.9,20 / 21,28539,2020-03-20 15:43:32:255
-4.697424,7.920019,2.887407,8.0,49.82906,24.045338,336.0,NaN,7.704,8.5,316.9,21 / 21,29039,2020-03-20 15:43:32:755
13.819332,2.293645,-0.215478,8.0,49.82906,24.045338,336.0,NaN,7.704,8.5,316.9,21 / 21,29539,2020-03-20 15:43:33:255
28.256369,24.674643,8.772355,8.0,49.82906,24.045338,336.0,NaN,7.704,8.5,316.9,19 / 21,30039,2020-03-20 15:43:33:755
-2.078167,8.154651,0.565032,8.0,49.82906,24.045338,336.0,NaN,7.704,8.5,316.9,19 / 21,30539,2020-03-20 15:43:34:255
1.37906,-16.280571,-4.079719,8.0,49.82906,24.045338,336.0,NaN,7.704,8.5,316.9,21 / 21,31039,2020-03-20 15:43:34:755
4.323929,-0.234632,-3.677494,8.0,49.82906,24.045338,336.0,NaN,7.704,8.5,316.9,21 / 21,31538,2020-03-20 15:43:35:254
-3.801992,10.189722,4.596867,8.0,49.82906,24.045338,336.0,NaN,7.704,8.5,316.9,21 / 21,32039,2020-03-20 15:43:35:755
6.751649,-6.976703,-0.550666,8.0,49.82906,24.045338,336.0,NaN,7.704,8.5,316.9,21 / 21,32538,2020-03-20 15:43:36:254
26.197355,24.679432,-6.019023,8.0,49.82906,24.045338,336.0,NaN,7.704,8.5,316.9,21 / 22,33038,2020-03-20 15:43:36:754
4.151546,24.50226,-1.13964,8.0,49.82906,24.045338,336.0,NaN,7.704,8.5,316.9,21 / 22,33539,2020-03-20 15:43:37:255
-0.493206,-14.542381,-2.164358,8.0,49.82906,24.045338,336.0,NaN,7.704,8.5,316.9,21 / 22,34039,2020-03-20 15:43:37:755
2.442086,9.677363,-3.016694,8.0,49.82906,24.045338,336.0,NaN,7.704,8.5,316.9,21 / 22,34538,2020-03-20 15:43:38:254
39.188293,39.188293,8.681376,8.0,49.82906,24.045338,336.0,NaN,7.704,8.5,316.9,21 / 22,35038,2020-03-20 15:43:38:754
6.435614,1.857901,-3.031059,8.0,49.82906,24.045338,336.0,NaN,7.704,8.5,316.9,21 / 22,35539,2020-03-20 15:43:39:255
14.657303,29.429527,5.889736,8.0,49.82906,24.045338,336.0,NaN,7.704,8.5,316.9,20 / 22,36039,2020-03-20 15:43:39:755
-0.584185,13.977349,-0.703895,8.0,49.82906,24.045338,336.0,NaN,7.704,8.5,316.9,20 / 22,36539,2020-03-20 15:43:40:255
2.671929,-15.155296,-1.010353,8.0,49.82906,24.045338,336.0,NaN,7.704,8.5,316.9,20 / 22,37039,2020-03-20 15:43:40:755
1.671153,7.958327,2.322376,8.0,49.82906,24.045338,336.0,NaN,7.704,8.5,316.9,20 / 22,37538,2020-03-20 15:43:41:254
21.782448,27.600357,3.524265,8.0,49.82906,24.045338,336.0,NaN,7.704,8.5,316.9,20 / 21,38038,2020-03-20 15:43:41:754
2.327164,-2.030283,-0.627281,8.0,49.82906,24.045338,336.0,NaN,7.704,8.5,316.9,20 / 21,38539,2020-03-20 15:43:42:255
-2.523488,11.372458,0.92895,8.0,49.82906,24.045338,336.0,NaN,7.704,8.5,316.9,18 / 20,39038,2020-03-20 15:43:42:754
15.562311,15.940595,-6.124367,8.0,49.82906,24.045338,336.0,NaN,7.704,8.5,316.9,18 / 20,39539,2020-03-20 15:43:43:255
11.803414,13.091495,-0.560243,8.0,49.82906,24.045338,336.0,NaN,7.704,8.5,316.9,20 / 20,40039,2020-03-20 15:43:43:755
6.023812,14.121001,6.325481,8.0,49.82906,24.045338,336.0,NaN,7.704,8.5,316.9,20 / 20,40539,2020-03-20 15:43:44:255
25.910051,39.16914,3.576938,8.0,49.82906,24.045338,336.0,NaN,7.704,8.5,316.9,19 / 21,41039,2020-03-20 15:43:44:755
5.200207,0.703895,-3.428497,8.0,49.82906,24.045338,336.0,NaN,7.704,8.5,316.9,19 / 21,41538,2020-03-20 15:43:45:254
-5.93762,5.305551,1.565808,8.0,49.82906,24.045338,336.0,NaN,7.704,8.5,316.9,19 / 22,42038,2020-03-20 15:43:45:754
13.038822,1.000776,-4.759673,8.0,49.82906,24.045338,336.0,NaN,7.704,8.5,316.9,19 / 22,42538,2020-03-20 15:43:46:254
22.601265,25.479094,6.263232,8.0,49.82906,24.045338,336.0,NaN,7.704,8.5,316.9,18 / 22,43039,2020-03-20 15:43:46:755
-3.912125,9.270349,-2.825158,8.0,49.82906,24.045338,336.0,NaN,7.704,8.5,316.9,18 / 22,43538,2020-03-20 15:43:47:254
3.490746,-23.918076,-2.557007,8.0,49.82906,24.045338,336.0,NaN,7.704,8.5,316.9,17 / 22,44038,2020-03-20 15:43:47:754
6.833052,13.881581,4.874595,8.0,49.82906,24.045338,336.0,NaN,7.704,8.5,316.9,17 / 22,44539,2020-03-20 15:43:48:255
12.272678,24.59324,8.475474,8.0,49.82906,24.045338,336.0,NaN,7.704,8.5,316.9,18 / 22,45039,2020-03-20 15:43:48:755
1.120486,-9.634268,-2.30801,8.0,49.82906,24.045338,336.0,NaN,7.704,8.5,316.9,18 / 22,45538,2020-03-20 15:43:49:254
26.75281,31.091103,5.291186,8.0,49.82906,24.045338,336.0,NaN,7.704,8.5,316.9,18 / 22,46038,2020-03-20 15:43:49:754
-2.810793,10.510546,-0.703895,8.0,49.82906,24.045338,336.0,NaN,7.704,8.5,316.9,18 / 22,46539,2020-03-20 15:43:50:255
5.391742,-13.048399,0.823605,8.0,49.82906,24.045338,336.0,NaN,7.704,8.5,316.9,19 / 22,47038,2020-03-20 15:43:50:754
4.620809,8.552089,-2.791639,0.0,49.82906,24.045338,336.0,NaN,7.704,8.5,316.9,19 / 22,47539,2020-03-20 15:43:51:255
28.984205,32.98252,-3.256114,8.0,49.82991,24.046795,318.0,NaN,8.532,4.0,65.0,16 / 22,48038,2020-03-20 15:43:51:754
1.685518,4.074931,-2.762909,8.0,49.82991,24.046795,318.0,NaN,8.532,4.0,65.0,16 / 22,48539,2020-03-20 15:43:52:255
-0.296881,5.133168,3.112462,8.0,49.82991,24.046795,318.0,NaN,8.532,4.0,65.0,21 / 22,49038,2020-03-20 15:43:52:754
2.269703,-13.800179,-1.106121,8.0,49.82991,24.046795,318.0,NaN,8.532,4.0,65.0,21 / 22,49538,2020-03-20 15:43:53:254
22.610842,33.011253,8.465898,8.0,49.82991,24.046795,318.0,NaN,8.532,4.0,65.0,20 / 22,50039,2020-03-20 15:43:53:755
-5.942408,4.525041,9.615114,8.0,49.82991,24.046795,318.0,NaN,8.532,4.0,65.0,20 / 22,50539,2020-03-20 15:43:54:255
26.187778,24.607603,-3.361459,8.0,49.82991,24.046795,318.0,NaN,8.532,4.0,65.0,20 / 22,51039,2020-03-20 15:43:54:755
6.406884,8.418014,-1.565808,8.0,49.82991,24.046795,318.0,NaN,8.532,4.0,65.0,20 / 22,51538,2020-03-20 15:43:55:254
-8.48984,3.86903,-0.852336,8.0,49.82991,24.046795,318.0,NaN,8.532,4.0,65.0,20 / 22,52038,2020-03-20 15:43:55:754
-2.825158,-18.607735,-5.133168,8.0,49.82991,24.046795,318.0,NaN,8.532,4.0,65.0,20 / 22,52539,2020-03-20 15:43:56:255
16.366762,32.676064,4.702213,8.0,49.82991,24.046795,318.0,NaN,8.532,4.0,65.0,19 / 22,53039,2020-03-20 15:43:56:755
-0.205901,12.928689,1.728614,8.0,49.82991,24.046795,318.0,NaN,8.532,4.0,65.0,19 / 22,53539,2020-03-20 15:43:57:255
4.165911,-15.05474,-6.277597,8.0,49.82991,24.046795,318.0,NaN,8.532,4.0,65.0,21 / 22,54038,2020-03-20 15:43:57:754
8.561666,-1.278504,2.973599,8.0,49.82991,24.046795,318.0,NaN,8.532,4.0,65.0,21 / 22,54539,2020-03-20 15:43:58:255
-5.195418,5.45878,-0.90022,8.0,49.82991,24.046795,318.0,NaN,8.532,4.0,65.0,18 / 20,55039,2020-03-20 15:43:58:755
-0.732626,-15.98369,-4.860229,8.0,49.82991,24.046795,318.0,NaN,8.532,4.0,65.0,18 / 20,55538,2020-03-20 15:43:59:254
29.645006,32.95858,8.868123,8.0,49.82991,24.046795,318.0,NaN,8.532,4.0,65.0,18 / 21,56038,2020-03-20 15:43:59:754
-2.614468,13.445837,-3.926491,8.0,49.82991,24.046795,318.0,NaN,8.532,4.0,65.0,18 / 21,56539,2020-03-20 15:44:00:255
3.505111,-16.04594,-4.817134,8.0,49.82991,24.046795,318.0,NaN,8.532,4.0,65.0,18 / 21,57039,2020-03-20 15:44:00:755
1.23062,10.702082,3.725378,8.0,49.82991,24.046795,318.0,NaN,8.532,4.0,65.0,18 / 21,57538,2020-03-20 15:44:01:254
20.350714,35.6353,2.121263,8.0,49.82991,24.046795,318.0,NaN,8.532,4.0,65.0,19 / 21,58038,2020-03-20 15:44:01:754
-0.09098,-13.977349,-3.663128,8.0,49.82991,24.046795,318.0,NaN,8.532,4.0,65.0,19 / 21,58539,2020-03-20 15:44:02:255
7.762002,23.898922,5.396531,8.0,49.82991,24.046795,318.0,NaN,8.532,4.0,65.0,19 / 21,59039,2020-03-20 15:44:02:755
3.160346,19.79526,5.358224,8.0,49.82991,24.046795,318.0,NaN,8.532,4.0,65.0,19 / 21,59539,2020-03-20 15:44:03:255
3.634398,-11.267113,-4.338293,8.0,49.82991,24.046795,318.0,NaN,8.532,4.0,65.0,18 / 21,60038,2020-03-20 15:44:03:754
-1.92015,8.815451,1.163582,8.0,49.82991,24.046795,318.0,NaN,8.532,4.0,65.0,18 / 21,60538,2020-03-20 15:44:04:254
21.83512,28.787882,2.221819,8.0,49.82991,24.046795,318.0,NaN,8.532,4.0,65.0,20 / 21,61038,2020-03-20 15:44:04:754
5.913678,5.683835,-3.902549,8.0,49.82991,24.046795,318.0,NaN,8.532,4.0,65.0,20 / 21,61539,2020-03-20 15:44:05:255
-4.429273,7.513005,3.605668,8.0,49.82991,24.046795,318.0,NaN,8.532,4.0,65.0,19 / 21,62039,2020-03-20 15:44:05:755
6.579266,25.301924,-3.404555,8.0,49.82991,24.046795,318.0,NaN,8.532,4.0,65.0,19 / 21,62538,2020-03-20 15:44:06:254
3.562572,-5.880159,-5.554548,8.0,49.82991,24.046795,318.0,NaN,8.532,4.0,65.0,17 / 21,63038,2020-03-20 15:44:06:754
-3.931279,10.103531,-4.711789,8.0,49.82991,24.046795,318.0,NaN,8.532,4.0,65.0,17 / 21,63539,2020-03-20 15:44:07:255
22.816742,23.860615,-6.971915,8.0,49.82991,24.046795,318.0,NaN,8.532,4.0,65.0,17 / 21,64039,2020-03-20 15:44:07:755
8.714894,5.535394,-6.08606,8.0,49.82991,24.046795,318.0,NaN,8.532,4.0,65.0,17 / 21,64539,2020-03-20 15:44:08:255
-3.68707,8.42759,3.524265,8.0,49.82991,24.046795,318.0,NaN,8.532,4.0,65.0,18 / 21,65038,2020-03-20 15:44:08:754
1.412579,-12.421119,-4.831499,8.0,49.82991,24.046795,318.0,NaN,8.532,4.0,65.0,18 / 21,65538,2020-03-20 15:44:09:254
24.554934,32.182858,4.414908,8.0,49.82991,24.046795,318.0,NaN,8.532,4.0,65.0,19 / 21,66038,2020-03-20 15:44:09:754
-2.94008,7.455544,2.987964,8.0,49.82991,24.046795,318.0,NaN,8.532,4.0,65.0,19 / 21,66539,2020-03-20 15:44:10:255
10.026917,10.127473,-9.931149,8.0,49.82991,24.046795,318.0,NaN,8.532,4.0,65.0,19 / 21,67039,2020-03-20 15:44:10:755
22.036232,15.840038,-1.383848,8.0,49.82991,24.046795,318.0,NaN,8.532,4.0,65.0,19 / 21,67538,2020-03-20 15:44:11:254
-6.311115,6.177041,3.60088,8.0,49.82991,24.046795,318.0,NaN,8.532,4.0,65.0,18 / 21,68038,2020-03-20 15:44:11:754
2.480393,-14.528016,-3.672705,8.0,49.82991,24.046795,318.0,NaN,8.532,4.0,65.0,18 / 21,68539,2020-03-20 15:44:12:255
-3.069367,19.85272,5.985504,8.0,49.82991,24.046795,318.0,NaN,8.532,4.0,65.0,18 / 21,69039,2020-03-20 15:44:12:755
14.111424,21.86385,6.56969,8.0,49.82991,24.046795,318.0,NaN,8.532,4.0,65.0,18 / 21,69539,2020-03-20 15:44:13:255
1.762132,-7.129933,-12.808979,8.0,49.82991,24.046795,318.0,NaN,8.532,4.0,65.0,18 / 21,70038,2020-03-20 15:44:13:754
18.818426,14.03481,0.014365,8.0,49.82991,24.046795,318.0,NaN,8.532,4.0,65.0,18 / 21,70538,2020-03-20 15:44:14:254
3.174712,10.927136,5.281609,8.0,49.82991,24.046795,318.0,NaN,8.532,4.0,65.0,19 / 21,71039,2020-03-20 15:44:14:755
0.45011,-16.630125,0.263362,8.0,49.82991,24.046795,318.0,NaN,8.532,4.0,65.0,19 / 21,71539,2020-03-20 15:44:15:255
8.710106,22.749704,-0.316035,8.0,49.82991,24.046795,318.0,NaN,8.532,4.0,65.0,20 / 21,72039,2020-03-20 15:44:15:755
6.78038,23.00349,6.555324,8.0,49.82991,24.046795,318.0,NaN,8.532,4.0,65.0,20 / 21,72539,2020-03-20 15:44:16:255
0.521936,-9.054871,-5.961562,8.0,49.82991,24.046795,318.0,NaN,8.532,4.0,65.0,20 / 21,73038,2020-03-20 15:44:16:754
0.301669,11.559206,3.447651,8.0,49.82991,24.046795,318.0,NaN,8.532,4.0,65.0,20 / 21,73538,2020-03-20 15:44:17:254
38.29286,35.36236,3.05979,8.0,49.82991,24.046795,318.0,NaN,8.532,4.0,65.0,19 / 21,74038,2020-03-20 15:44:17:754
2.595315,-18.301277,-1.958457,8.0,49.82991,24.046795,318.0,NaN,8.532,4.0,65.0,19 / 21,74539,2020-03-20 15:44:18:255
0.560243,20.54225,2.992752,8.0,49.82991,24.046795,318.0,NaN,8.532,4.0,65.0,19 / 21,75039,2020-03-20 15:44:18:755
8.236054,23.831884,-1.561019,8.0,49.82991,24.046795,318.0,NaN,8.532,4.0,65.0,19 / 21,75538,2020-03-20 15:44:19:254
-0.732626,-7.915231,0.086191,8.0,49.82991,24.046795,318.0,NaN,8.532,4.0,65.0,19 / 21,76038,2020-03-20 15:44:19:754
1.067814,11.947066,2.552219,8.0,49.82991,24.046795,318.0,NaN,8.532,4.0,65.0,19 / 21,76538,2020-03-20 15:44:20:254
12.813767,17.496826,-8.283937,8.0,49.82991,24.046795,318.0,NaN,8.532,4.0,65.0,18 / 21,77038,2020-03-20 15:44:20:754
13.01488,9.054871,-5.104438,8.0,49.82991,24.046795,318.0,NaN,8.532,4.0,65.0,18 / 21,77539,2020-03-20 15:44:21:255
-6.258443,7.785944,3.663129,8.0,49.82991,24.046795,318.0,NaN,8.532,4.0,65.0,19 / 21,78039,2020-03-20 15:44:21:755
32.561142,38.848316,1.991976,8.0,49.82991,24.046795,318.0,NaN,8.532,4.0,65.0,19 / 21,78539,2020-03-20 15:44:22:255
5.645528,0.890643,-4.256891,8.0,49.82991,24.046795,318.0,NaN,8.532,4.0,65.0,18 / 21,79039,2020-03-20 15:44:22:755
-4.740519,9.782708,3.404555,8.0,49.82991,24.046795,318.0,NaN,8.532,4.0,65.0,18 / 21,79539,2020-03-20 15:44:23:255
10.79785,-2.786851,-0.196325,8.0,49.82991,24.046795,318.0,NaN,8.532,4.0,65.0,19 / 21,80039,2020-03-20 15:44:23:755
17.156849,15.638926,-1.35033,8.0,49.82991,24.046795,318.0,NaN,8.532,4.0,65.0,19 / 21,80538,2020-03-20 15:44:24:254
-5.679046,7.723695,-1.13964,8.0,49.82991,24.046795,318.0,NaN,8.532,4.0,65.0,19 / 21,81039,2020-03-20 15:44:24:755
3.169923,-15.892711,-0.517148,8.0,49.82991,24.046795,318.0,NaN,8.532,4.0,65.0,19 / 21,81539,2020-03-20 15:44:25:255
5.406108,23.93723,11.568783,8.0,49.82991,24.046795,318.0,NaN,8.532,4.0,65.0,19 / 21,82038,2020-03-20 15:44:25:754
-2.906561,5.046977,-0.905008,8.0,49.82991,24.046795,318.0,NaN,8.532,4.0,65.0,19 / 21,82538,2020-03-20 15:44:26:254
2.437297,-12.038046,-5.961562,8.0,49.82991,24.046795,318.0,NaN,8.532,4.0,65.0,20 / 21,83038,2020-03-20 15:44:26:754
13.718776,30.459034,7.393295,8.0,49.82991,24.046795,318.0,NaN,8.532,4.0,65.0,20 / 21,83538,2020-03-20 15:44:27:254
0.363919,16.122555,-2.408567,8.0,49.82991,24.046795,318.0,NaN,8.532,4.0,65.0,20 / 21,84038,2020-03-20 15:44:27:754
4.496311,-12.301409,-2.748543,8.0,49.82991,24.046795,318.0,NaN,8.532,4.0,65.0,20 / 21,84539,2020-03-20 15:44:28:255
0.162806,8.145074,5.281609,8.0,49.82991,24.046795,318.0,NaN,8.532,4.0,65.0,20 / 21,85039,2020-03-20 15:44:28:755
34.567486,33.68163,2.537854,8.0,49.82991,24.046795,318.0,NaN,8.532,4.0,65.0,20 / 21,85539,2020-03-20 15:44:29:255
3.505111,1.225831,-2.916138,8.0,49.82991,24.046795,318.0,NaN,8.532,4.0,65.0,19 / 21,86038,2020-03-20 15:44:29:754
5.928044,23.386562,4.295198,8.0,49.82991,24.046795,318.0,NaN,8.532,4.0,65.0,19 / 21,86538,2020-03-20 15:44:30:254
16.323668,27.485435,5.99987,8.0,49.82991,24.046795,318.0,NaN,8.532,4.0,65.0,19 / 21,87038,2020-03-20 15:44:30:754
0.608127,-3.222595,-2.250549,8.0,49.82991,24.046795,318.0,NaN,8.532,4.0,65.0,19 / 21,87539,2020-03-20 15:44:31:255
-0.914585,6.971915,2.331953,8.0,49.82991,24.046795,318.0,NaN,8.532,4.0,65.0,19 / 21,88039,2020-03-20 15:44:31:755
12.65575,12.607866,-6.17704,8.0,49.82991,24.046795,318.0,NaN,8.532,4.0,65.0,19 / 21,88538,2020-03-20 15:44:32:254
13.484144,16.22311,1.537078,8.0,49.82991,24.046795,318.0,NaN,8.532,4.0,65.0,19 / 21,89038,2020-03-20 15:44:32:754
-0.047884,8.494628,-1.067814,8.0,49.82991,24.046795,318.0,NaN,8.532,4.0,65.0,19 / 21,89538,2020-03-20 15:44:33:254
4.132392,-15.59583,-1.283292,8.0,49.82991,24.046795,318.0,NaN,8.532,4.0,65.0,20 / 22,90039,2020-03-20 15:44:33:755
1.604115,1.958457,6.435614,8.0,49.82991,24.046795,318.0,NaN,8.532,4.0,65.0,20 / 22,90538,2020-03-20 15:44:34:254
-5.133168,5.43005,-1.991976,8.0,49.82991,24.046795,318.0,NaN,8.532,4.0,65.0,21 / 23,91038,2020-03-20 15:44:34:754
-2.264915,-14.949395,-1.757344,8.0,49.82991,24.046795,318.0,NaN,8.532,4.0,65.0,21 / 23,91538,2020-03-20 15:44:35:254
18.181568,30.89478,10.002975,8.0,49.82991,24.046795,318.0,NaN,8.532,4.0,65.0,22 / 23,92039,2020-03-20 15:44:35:755
0.732626,16.831238,-1.072602,8.0,49.82991,24.046795,318.0,NaN,8.532,4.0,65.0,22 / 23,92538,2020-03-20 15:44:36:254
2.547431,-10.577583,-0.833182,8.0,49.82991,24.046795,318.0,NaN,8.532,4.0,65.0,22 / 23,93038,2020-03-20 15:44:36:754
-0.086191,6.100426,-1.623269,8.0,49.82991,24.046795,318.0,NaN,8.532,4.0,65.0,22 / 23,93539,2020-03-20 15:44:37:255
20.231005,24.066513,-3.888183,8.0,49.82991,24.046795,318.0,NaN,8.532,4.0,65.0,21 / 23,94039,2020-03-20 15:44:37:755
3.41892,-11.611878,-4.472368,8.0,49.82991,24.046795,318.0,NaN,8.532,4.0,65.0,21 / 23,94538,2020-03-20 15:44:38:254
3.624822,9.059659,4.390966,8.0,49.82991,24.046795,318.0,NaN,8.532,4.0,65.0,21 / 23,95039,2020-03-20 15:44:38:755
33.0735,33.20279,4.802769,8.0,49.82991,24.046795,318.0,NaN,8.532,4.0,65.0,21 / 23,95538,2020-03-20 15:44:39:254
3.792416,3.596091,-2.681506,8.0,49.8306,24.04855,319.0,NaN,8.856,3.0,64.4,20 / 23,96038,2020-03-20 15:44:39:754
-1.872266,7.211336,1.278504,8.0,49.8306,24.04855,319.0,NaN,8.856,3.0,64.4,20 / 23,96538,2020-03-20 15:44:40:254
-4.070143,-17.980455,-0.914585,8.0,49.8306,24.04855,319.0,NaN,8.856,3.0,64.4,18 / 21,97039,2020-03-20 15:44:40:755
8.643068,28.213272,9.466674,8.0,49.8306,24.04855,319.0,NaN,8.856,3.0,64.4,18 / 21,97539,2020-03-20 15:44:41:255
6.627151,21.519085,4.659117,8.0,49.8306,24.04855,319.0,NaN,8.856,3.0,64.4,21 / 22,98038,2020-03-20 15:44:41:754
16.864758,5.463568,-7.503428,8.0,49.8306,24.04855,319.0,NaN,8.856,3.0,64.4,21 / 22,98538,2020-03-20 15:44:42:254
23.654713,24.128765,-2.346318,8.0,49.8306,24.04855,319.0,NaN,8.856,3.0,64.4,20 / 23,99038,2020-03-20 15:44:42:754
-1.843535,10.381259,-1.388637,8.0,49.8306,24.04855,319.0,NaN,8.856,3.0,64.4,20 / 23,99539,2020-03-20 15:44:43:255
0.612916,-10.400413,0.095768,8.0,49.8306,24.04855,319.0,NaN,8.856,3.0,64.4,20 / 23,100038,2020-03-20 15:44:43:754
6.421249,29.022512,8.8777,8.0,49.8306,24.04855,319.0,NaN,8.856,3.0,64.4,20 / 23,100538,2020-03-20 15:44:44:254
5.214572,20.910957,8.30788,8.0,49.8306,24.04855,319.0,NaN,8.856,3.0,64.4,21 / 23,101039,2020-03-20 15:44:44:755
0.565032,-9.792285,-0.325611,8.0,49.8306,24.04855,319.0,NaN,8.856,3.0,64.4,21 / 23,101539,2020-03-20 15:44:45:255
-2.738967,4.458004,8.255207,8.0,49.8306,24.04855,319.0,NaN,8.856,3.0,64.4,20 / 24,102038,2020-03-20 15:44:45:754
-2.585738,7.244855,0.521936,8.0,49.8306,24.04855,319.0,NaN,8.856,3.0,64.4,20 / 24,102538,2020-03-20 15:44:46:254
-2.140416,-19.938911,-2.284068,8.0,49.8306,24.04855,319.0,NaN,8.856,3.0,64.4,22 / 26,103039,2020-03-20 15:44:46:755
30.119057,23.142353,-16.376339,8.0,49.8306,24.04855,319.0,NaN,8.856,3.0,64.4,22 / 26,103539,2020-03-20 15:44:47:255
-4.165911,7.268797,2.226608,8.0,49.8306,24.04855,319.0,NaN,8.856,3.0,64.4,22 / 26,104039,2020-03-20 15:44:47:755
-1.522712,-15.916653,1.92015,8.0,49.8306,24.04855,319.0,NaN,8.856,3.0,64.4,22 / 26,104539,2020-03-20 15:44:48:255
12.909535,28.543673,0.354342,8.0,49.8306,24.04855,319.0,NaN,8.856,3.0,64.4,20 / 25,105038,2020-03-20 15:44:48:754
-0.11971,16.591818,-0.071826,8.0,49.8306,24.04855,319.0,NaN,8.856,3.0,64.4,20 / 25,105538,2020-03-20 15:44:49:254
4.644751,-16.098612,-2.715025,8.0,49.8306,24.04855,319.0,NaN,8.856,3.0,64.4,22 / 25,106038,2020-03-20 15:44:49:754
5.736508,13.55597,7.354988,8.0,49.8306,24.04855,319.0,NaN,8.856,3.0,64.4,22 / 25,106539,2020-03-20 15:44:50:255
-8.00621,5.315128,2.284068,8.0,49.8306,24.04855,319.0,NaN,8.856,3.0,64.4,22 / 25,107039,2020-03-20 15:44:50:755
7.886501,-12.397177,1.120486,8.0,49.8306,24.04855,319.0,NaN,8.856,3.0,64.4,22 / 25,107538,2020-03-20 15:44:51:254
30.674513,24.890121,-4.079719,8.0,49.8306,24.04855,319.0,NaN,8.856,3.0,64.4,21 / 25,108038,2020-03-20 15:44:51:754
1.187524,13.072341,-1.953669,8.0,49.8306,24.04855,319.0,NaN,8.856,3.0,64.4,21 / 25,108538,2020-03-20 15:44:52:254
1.44131,-14.585477,3.610456,8.0,49.8306,24.04855,319.0,NaN,8.856,3.0,64.4,19 / 25,109038,2020-03-20 15:44:52:754
6.0286,17.889475,-0.732626,8.0,49.8306,24.04855,319.0,NaN,8.856,3.0,64.4,19 / 25,109539,2020-03-20 15:44:53:255
15.35641,25.665842,-2.499546,8.0,49.8306,24.04855,319.0,NaN,8.856,3.0,64.4,19 / 26,110039,2020-03-20 15:44:53:755
0.550666,-3.926491,0.895431,8.0,49.8306,24.04855,319.0,NaN,8.856,3.0,64.4,19 / 26,110538,2020-03-20 15:44:54:254
-3.246537,8.75799,-3.605668,8.0,49.8306,24.04855,319.0,NaN,8.856,3.0,64.4,19 / 26,111038,2020-03-20 15:44:54:754
-1.345541,5.391742,-1.359906,8.0,49.8306,24.04855,319.0,NaN,8.856,3.0,64.4,19 / 26,111539,2020-03-20 15:44:55:255
17.860744,-3.758896,-3.394978,8.0,49.8306,24.04855,319.0,NaN,8.856,3.0,64.4,19 / 26,112039,2020-03-20 15:44:55:755
18.689138,22.256498,-1.335964,8.0,49.8306,24.04855,319.0,NaN,8.856,3.0,64.4,19 / 26,112539,2020-03-20 15:44:56:255
-0.143652,8.240842,-0.703895,8.0,49.8306,24.04855,319.0,NaN,8.856,3.0,64.4,16 / 22,113039,2020-03-20 15:44:56:755
0.80924,-20.618866,-1.489193,8.0,49.8306,24.04855,319.0,NaN,8.856,3.0,64.4,16 / 22,113539,2020-03-20 15:44:57:255
15.629349,29.8126,2.30801,8.0,49.8306,24.04855,319.0,NaN,8.856,3.0,64.4,19 / 25,114038,2020-03-20 15:44:57:754
15.528792,30.004135,10.548853,8.0,49.8306,24.04855,319.0,NaN,8.856,3.0,64.4,19 / 25,114538,2020-03-20 15:44:58:254
-0.205901,-14.528016,-1.479617,8.0,49.8306,24.04855,319.0,NaN,8.856,3.0,64.4,20 / 26,115038,2020-03-20 15:44:58:754
14.54717,4.592079,4.553772,8.0,49.8306,24.04855,319.0,NaN,8.856,3.0,64.4,20 / 26,115539,2020-03-20 15:44:59:255
-8.231265,4.299987,1.968034,8.0,49.8306,24.04855,319.0,NaN,8.856,3.0,64.4,19 / 26,116038,2020-03-20 15:44:59:754
18.784906,-11.453861,1.766921,8.0,49.8306,24.04855,319.0,NaN,8.856,3.0,64.4,19 / 26,116539,2020-03-20 15:45:00:255
15.787366,15.883134,-1.628057,8.0,49.8306,24.04855,319.0,NaN,8.856,3.0,64.4,18 / 24,117039,2020-03-20 15:45:00:755
-2.202665,9.428367,-2.020706,8.0,49.8306,24.04855,319.0,NaN,8.856,3.0,64.4,18 / 24,117539,2020-03-20 15:45:01:255
1.915361,-19.531897,-0.71826,8.0,49.8306,24.04855,319.0,NaN,8.856,3.0,64.4,20 / 25,118038,2020-03-20 15:45:01:754
16.70674,25.890898,4.161122,8.0,49.8306,24.04855,319.0,NaN,8.856,3.0,64.4,20 / 25,118538,2020-03-20 15:45:02:254
8.676587,20.915747,-7.613561,8.0,49.8306,24.04855,319.0,NaN,8.856,3.0,64.4,20 / 25,119038,2020-03-20 15:45:02:754
3.701436,-9.892841,-2.590526,8.0,49.8306,24.04855,319.0,NaN,8.856,3.0,64.4,20 / 25,119539,2020-03-20 15:45:03:255
21.71541,12.157756,-1.565808,8.0,49.8306,24.04855,319.0,NaN,8.856,3.0,64.4,20 / 25,120039,2020-03-20 15:45:03:755
-2.173935,10.366894,7.70933,8.0,49.8306,24.04855,319.0,NaN,8.856,3.0,64.4,20 / 25,120538,2020-03-20 15:45:04:254
0.167594,-16.788143,0.675165,8.0,49.8306,24.04855,319.0,NaN,8.856,3.0,64.4,20 / 25,121038,2020-03-20 15:45:04:754
11.803414,25.081657,5.525818,8.0,49.8306,24.04855,319.0,NaN,8.856,3.0,64.4,20 / 25,121538,2020-03-20 15:45:05:254
0.670377,15.016433,3.026271,8.0,49.8306,24.04855,319.0,NaN,8.856,3.0,64.4,21 / 25,122038,2020-03-20 15:45:05:754
1.25935,-14.78659,-3.155558,8.0,49.8306,24.04855,319.0,NaN,8.856,3.0,64.4,21 / 25,122539,2020-03-20 15:45:06:255
7.125145,14.135366,8.480263,8.0,49.8306,24.04855,319.0,NaN,8.856,3.0,64.4,20 / 26,123039,2020-03-20 15:45:06:755
23.597252,29.257145,5.238514,8.0,49.8306,24.04855,319.0,NaN,8.856,3.0,64.4,20 / 26,123538,2020-03-20 15:45:07:254
5.358224,2.686294,1.810017,8.0,49.8306,24.04855,319.0,NaN,8.856,3.0,64.4,20 / 26,124038,2020-03-20 15:45:07:754
8.968679,25.876532,10.82658,8.0,49.8306,24.04855,319.0,NaN,8.856,3.0,64.4,20 / 26,124538,2020-03-20 15:45:08:254
7.091625,23.15193,2.815581,8.0,49.8306,24.04855,319.0,NaN,8.856,3.0,64.4,20 / 26,125038,2020-03-20 15:45:08:754
-1.25935,-4.865018,-3.634398,8.0,49.8306,24.04855,319.0,NaN,8.856,3.0,64.4,20 / 26,125539,2020-03-20 15:45:09:255
-3.916914,4.1707,1.867477,8.0,49.8306,24.04855,319.0,NaN,8.856,3.0,64.4,21 / 26,126038,2020-03-20 15:45:09:754
15.80652,5.061342,1.359907,8.0,49.8306,24.04855,319.0,NaN,8.856,3.0,64.4,21 / 26,126538,2020-03-20 15:45:10:254
27.217285,30.68409,7.393295,8.0,49.8306,24.04855,319.0,NaN,8.856,3.0,64.4,21 / 25,127038,2020-03-20 15:45:10:754
-0.59855,9.131485,1.398214,8.0,49.8306,24.04855,319.0,NaN,8.856,3.0,64.4,21 / 25,127539,2020-03-20 15:45:11:255
4.616021,-13.828909,-2.408567,8.0,49.8306,24.04855,319.0,NaN,8.856,3.0,64.4,21 / 25,128038,2020-03-20 15:45:11:754
10.204087,7.623139,-2.351106,8.0,49.8306,24.04855,319.0,NaN,8.856,3.0,64.4,21 / 25,128538,2020-03-20 15:45:12:254
-4.443638,7.067683,1.450886,8.0,49.8306,24.04855,319.0,NaN,8.856,3.0,64.4,22 / 24,129039,2020-03-20 15:45:12:755
-0.723049,-13.350069,-2.561796,8.0,49.8306,24.04855,319.0,NaN,8.856,3.0,64.4,22 / 24,129539,2020-03-20 15:45:13:255
18.397045,27.925968,8.710106,8.0,49.8306,24.04855,319.0,NaN,8.856,3.0,64.4,21 / 24,130039,2020-03-20 15:45:13:755
7.987057,18.646044,-1.599327,8.0,49.8306,24.04855,319.0,NaN,8.856,3.0,64.4,21 / 24,130538,2020-03-20 15:45:14:254
-1.01993,-10.682928,2.537854,8.0,49.8306,24.04855,319.0,NaN,8.856,3.0,64.4,23 / 26,131038,2020-03-20 15:45:14:754
-1.240196,2.806004,2.365471,8.0,49.8306,24.04855,319.0,NaN,8.856,3.0,64.4,22 / 25,131539,2020-03-20 15:45:15:255
14.087482,-0.770933,2.978387,8.0,49.8306,24.04855,319.0,NaN,8.856,3.0,64.4,22 / 25,132038,2020-03-20 15:45:15:754
-1.953669,-17.290924,-4.529829,8.0,49.8306,24.04855,319.0,NaN,8.856,3.0,64.4,20 / 24,132538,2020-03-20 15:45:16:254
-0.057461,8.508993,6.382942,8.0,49.8306,24.04855,319.0,NaN,8.856,3.0,64.4,20 / 24,133038,2020-03-20 15:45:16:754
18.32043,22.036232,-7.16824,8.0,49.8306,24.04855,319.0,NaN,8.856,3.0,64.4,20 / 24,133539,2020-03-20 15:45:17:255
2.806004,-1.010353,-0.177171,8.0,49.8306,24.04855,319.0,NaN,8.856,3.0,64.4,21 / 25,134039,2020-03-20 15:45:17:755
-2.60968,9.035717,0.790087,8.0,49.8306,24.04855,319.0,NaN,8.856,3.0,64.4,21 / 25,134539,2020-03-20 15:45:18:255
2.839523,-15.811308,-2.542642,8.0,49.8306,24.04855,319.0,NaN,8.856,3.0,64.4,23 / 25,135039,2020-03-20 15:45:18:755
1.067814,14.020445,23.93723,8.0,49.8306,24.04855,319.0,NaN,8.856,3.0,64.4,23 / 25,135538,2020-03-20 15:45:19:254
14.504074,23.592464,6.382942,8.0,49.8306,24.04855,319.0,NaN,8.856,3.0,64.4,23 / 25,136038,2020-03-20 15:45:19:754
4.462792,-10.979809,-3.916914,8.0,49.8306,24.04855,319.0,NaN,8.856,3.0,64.4,23 / 25,136539,2020-03-20 15:45:20:255
20.527885,22.261288,3.136404,8.0,49.8306,24.04855,319.0,NaN,8.856,3.0,64.4,23 / 25,137038,2020-03-20 15:45:20:754
-4.113238,11.420342,2.240973,8.0,49.8306,24.04855,319.0,NaN,8.856,3.0,64.4,21 / 25,137539,2020-03-20 15:45:21:255
4.52983,-16.898275,-4.601655,8.0,49.8306,24.04855,319.0,NaN,8.856,3.0,64.4,21 / 25,138039,2020-03-20 15:45:21:755
8.523358,14.858416,0.220267,8.0,49.8306,24.04855,319.0,NaN,8.856,3.0,64.4,21 / 25,138538,2020-03-20 15:45:22:254
24.851814,31.440657,-1.872266,8.0,49.8306,24.04855,319.0,NaN,8.856,3.0,64.4,22 / 25,139038,2020-03-20 15:45:22:754
2.221819,-5.051765,-3.77805,8.0,49.8306,24.04855,319.0,NaN,8.856,3.0,64.4,22 / 25,139540,2020-03-20 15:45:23:256
0.493206,9.883265,1.331176,8.0,49.8306,24.04855,319.0,NaN,8.856,3.0,64.4,22 / 25,140039,2020-03-20 15:45:23:755
-0.579397,11.927913,-1.929727,8.0,49.8306,24.04855,319.0,NaN,8.856,3.0,64.4,22 / 25,140538,2020-03-20 15:45:24:254
2.652776,-13.31655,-0.531513,8.0,49.8306,24.04855,319.0,NaN,8.856,3.0,64.4,22 / 25,141038,2020-03-20 15:45:24:754
3.715801,12.344504,4.903325,8.0,49.8306,24.04855,319.0,NaN,8.856,3.0,64.4,21 / 25,141539,2020-03-20 15:45:25:255
14.384364,18.68435,-0.957681,8.0,49.8306,24.04855,319.0,NaN,8.856,3.0,64.4,21 / 25,142038,2020-03-20 15:45:25:754
10.122684,5.803545,-3.715801,8.0,49.8306,24.04855,319.0,NaN,8.856,3.0,64.4,21 / 25,142539,2020-03-20 15:45:26:255
-4.644751,5.300763,-1.80044,8.0,49.8306,24.04855,319.0,NaN,8.856,3.0,64.4,22 / 25,143039,2020-03-20 15:45:26:755
3.797204,-12.148179,-0.574608,8.0,49.8306,24.04855,319.0,NaN,8.856,3.0,64.4,21 / 25,143538,2020-03-20 15:45:27:254
7.661446,26.508602,3.466804,8.0,49.831547,24.049452,327.0,NaN,6.696,3.0,25.6,21 / 25,144038,2020-03-20 15:45:27:754
-5.233725,5.827487,0.205901,8.0,49.831547,24.049452,327.0,NaN,6.696,3.0,25.6,21 / 24,144539,2020-03-20 15:45:28:255
10.160992,7.340623,-9.864111,8.0,49.831547,24.049452,327.0,NaN,6.696,3.0,25.6,21 / 24,145039,2020-03-20 15:45:28:755
14.422671,10.793061,-5.841852,8.0,49.831547,24.049452,327.0,NaN,6.696,3.0,25.6,21 / 24,145539,2020-03-20 15:45:29:255
-6.789956,7.61835,0.699107,8.0,49.831547,24.049452,327.0,NaN,6.696,3.0,25.6,21 / 24,146038,2020-03-20 15:45:29:754
6.679823,-9.964667,-0.258574,8.0,49.831547,24.049452,327.0,NaN,6.696,3.0,25.6,22 / 25,146538,2020-03-20 15:45:30:254
-5.865794,18.899828,-0.603339,8.0,49.831547,24.049452,327.0,NaN,6.696,3.0,25.6,22 / 25,147038,2020-03-20 15:45:30:754
9.054871,28.09835,1.297657,8.0,49.831547,24.049452,327.0,NaN,6.696,3.0,25.6,20 / 24,147538,2020-03-20 15:45:31:254
1.532289,-2.590526,1.144428,8.0,49.831547,24.049452,327.0,NaN,6.696,3.0,25.6,20 / 24,148039,2020-03-20 15:45:31:755
12.674904,17.650055,2.72939,8.0,49.831547,24.049452,327.0,NaN,6.696,3.0,25.6,20 / 24,148538,2020-03-20 15:45:32:254
-2.686294,7.340623,1.154005,8.0,49.831547,24.049452,327.0,NaN,6.696,3.0,25.6,21 / 25,149038,2020-03-20 15:45:32:754
3.926491,-9.940725,-0.459687,8.0,49.831547,24.049452,327.0,NaN,6.696,3.0,25.6,21 / 25,149539,2020-03-20 15:45:33:255
-4.003105,15.840038,1.221043,8.0,49.831547,24.049452,327.0,NaN,6.696,3.0,25.6,21 / 25,150038,2020-03-20 15:45:33:754
9.433155,25.81907,10.060435,8.0,49.831547,24.049452,327.0,NaN,6.696,3.0,25.6,21 / 25,150539,2020-03-20 15:45:34:255
3.41892,-5.152322,-2.571372,8.0,49.831547,24.049452,327.0,NaN,6.696,3.0,25.6,21 / 25,151038,2020-03-20 15:45:34:754
-5.343858,-0.349553,8.149863,8.0,49.831547,24.049452,327.0,NaN,6.696,3.0,25.6,19 / 25,151539,2020-03-20 15:45:35:255
-3.691859,27.035326,7.029376,8.0,49.831547,24.049452,327.0,NaN,6.696,3.0,25.6,19 / 25,152039,2020-03-20 15:45:35:755
-5.975927,27.327417,0.742203,8.0,49.831547,24.049452,327.0,NaN,6.696,3.0,25.6,19 / 25,152539,2020-03-20 15:45:36:255
-3.639186,0.852336,-3.667917,8.0,49.831547,24.049452,327.0,NaN,6.696,3.0,25.6,21 / 25,153038,2020-03-20 15:45:36:754
-12.186486,21.298819,1.335965,8.0,49.831547,24.049452,327.0,NaN,6.696,3.0,25.6,21 / 25,153538,2020-03-20 15:45:37:254
4.486734,12.612655,8.954314,8.0,49.831547,24.049452,327.0,NaN,6.696,3.0,25.6,23 / 25,154038,2020-03-20 15:45:37:754
-10.409989,-0.105345,-0.474052,8.0,49.831547,24.049452,327.0,NaN,6.696,3.0,25.6,23 / 25,154539,2020-03-20 15:45:38:255
18.018763,6.526594,-5.717354,8.0,49.831547,24.049452,327.0,NaN,6.696,3.0,25.6,20 / 25,155039,2020-03-20 15:45:38:755
11.314998,15.030798,13.469779,8.0,49.831547,24.049452,327.0,NaN,6.696,3.0,25.6,20 / 25,155538,2020-03-20 15:45:39:254
1.264139,10.093954,10.496181,8.0,49.831547,24.049452,327.0,NaN,6.696,3.0,25.6,21 / 24,156038,2020-03-20 15:45:39:754
1.810017,-10.127473,-7.517793,8.0,49.831547,24.049452,327.0,NaN,6.696,3.0,25.6,21 / 24,156539,2020-03-20 15:45:40:255
4.496311,15.20797,5.851429,8.0,49.831547,24.049452,327.0,NaN,6.696,3.0,25.6,21 / 25,157039,2020-03-20 15:45:40:755
-6.133945,3.888184,0.837971,8.0,49.831547,24.049452,327.0,NaN,6.696,3.0,25.6,21 / 25,157538,2020-03-20 15:45:41:254
13.804967,1.235408,-1.479617,8.0,49.831547,24.049452,327.0,NaN,6.696,3.0,25.6,21 / 25,158038,2020-03-20 15:45:41:754
19.88624,19.445705,-0.047884,8.0,49.831547,24.049452,327.0,NaN,6.696,3.0,25.6,21 / 25,158539,2020-03-20 15:45:42:255
-2.178723,8.671799,0.857124,8.0,49.831547,24.049452,327.0,NaN,6.696,3.0,25.6,20 / 24,159039,2020-03-20 15:45:42:755
3.86903,-10.491392,-0.909797,8.0,49.831547,24.049452,327.0,NaN,6.696,3.0,25.6,20 / 24,159538,2020-03-20 15:45:43:254
8.801085,23.602041,8.796297,8.0,49.831547,24.049452,327.0,NaN,6.696,3.0,25.6,20 / 24,160038,2020-03-20 15:45:43:754
5.884948,19.60851,4.175488,8.0,49.831547,24.049452,327.0,NaN,6.696,3.0,25.6,20 / 24,160539,2020-03-20 15:45:44:255
0.301669,-8.092401,-0.339977,8.0,49.831547,24.049452,327.0,NaN,6.696,3.0,25.6,20 / 24,161039,2020-03-20 15:45:44:755
1.278504,8.75799,0.981623,8.0,49.831547,24.049452,327.0,NaN,6.696,3.0,25.6,20 / 24,161539,2020-03-20 15:45:45:255
-0.076614,8.231265,-1.479617,8.0,49.831547,24.049452,327.0,NaN,6.696,3.0,25.6,21 / 24,162039,2020-03-20 15:45:45:755
6.473922,-12.076353,-1.01993,8.0,49.831547,24.049452,327.0,NaN,6.696,3.0,25.6,21 / 24,162538,2020-03-20 15:45:46:254
8.777143,16.682798,1.915361,8.0,49.831547,24.049452,327.0,NaN,6.696,3.0,25.6,21 / 24,163038,2020-03-20 15:45:46:754
12.421119,29.3577,5.051766,8.0,49.831547,24.049452,327.0,NaN,6.696,3.0,25.6,21 / 24,163539,2020-03-20 15:45:47:255
-0.464475,-5.334281,-1.278504,8.0,49.831547,24.049452,327.0,NaN,6.696,3.0,25.6,22 / 24,164039,2020-03-20 15:45:47:755
1.077391,8.801085,-5.841852,8.0,49.831547,24.049452,327.0,NaN,6.696,3.0,25.6,22 / 24,164538,2020-03-20 15:45:48:254
18.358738,11.013328,-3.227384,8.0,49.831547,24.049452,327.0,NaN,6.696,3.0,25.6,23 / 24,165038,2020-03-20 15:45:48:754
11.961432,11.291056,8.030153,8.0,49.831547,24.049452,327.0,NaN,6.696,3.0,25.6,23 / 24,165539,2020-03-20 15:45:49:255
7.508217,14.925453,2.949657,8.0,49.831547,24.049452,327.0,NaN,6.696,3.0,25.6,21 / 24,166039,2020-03-20 15:45:49:755
13.206416,30.085539,1.489194,8.0,49.831547,24.049452,327.0,NaN,6.696,3.0,25.6,21 / 24,166539,2020-03-20 15:45:50:255
0.909797,-7.19697,-3.596091,8.0,49.831547,24.049452,327.0,NaN,6.696,3.0,25.6,22 / 24,167039,2020-03-20 15:45:50:755
0.502782,10.299856,5.468357,8.0,49.831547,24.049452,327.0,NaN,6.696,3.0,25.6,22 / 24,167538,2020-03-20 15:45:51:254
4.103662,14.542381,-0.167594,8.0,49.831547,24.049452,327.0,NaN,6.696,3.0,25.6,22 / 24,168038,2020-03-20 15:45:51:754
10.850522,8.75799,-4.462792,8.0,49.831547,24.049452,327.0,NaN,6.696,3.0,25.6,22 / 24,168538,2020-03-20 15:45:52:254
-4.663905,7.728483,2.035071,8.0,49.831547,24.049452,327.0,NaN,6.696,3.0,25.6,21 / 24,169039,2020-03-20 15:45:52:755
2.413355,-11.880029,-0.694318,8.0,49.831547,24.049452,327.0,NaN,6.696,3.0,25.6,21 / 24,169539,2020-03-20 15:45:53:255
17.669209,30.645782,0.526724,8.0,49.831547,24.049452,327.0,NaN,6.696,3.0,25.6,22 / 25,170038,2020-03-20 15:45:53:754
0.081403,6.904878,2.5187,8.0,49.831547,24.049452,327.0,NaN,6.696,3.0,25.6,22 / 25,170538,2020-03-20 15:45:54:254
1.958457,-4.271256,0.459687,8.0,49.831547,24.049452,327.0,NaN,6.696,3.0,25.6,22 / 25,171039,2020-03-20 15:45:54:755
20.796036,31.1342,3.854665,8.0,49.831547,24.049452,327.0,NaN,6.696,3.0,25.6,22 / 25,171539,2020-03-20 15:45:55:255
2.360683,15.729905,-2.815581,8.0,49.831547,24.049452,327.0,NaN,6.696,3.0,25.6,22 / 25,172038,2020-03-20 15:45:55:754
2.30801,-8.437167,0.311246,8.0,49.831547,24.049452,327.0,NaN,6.696,3.0,25.6,22 / 25,172538,2020-03-20 15:45:56:254
-0.344765,8.413225,4.644751,8.0,49.831547,24.049452,327.0,NaN,6.696,3.0,25.6,22 / 25,173039,2020-03-20 15:45:56:755
30.11427,33.988087,13.345281,8.0,49.831547,24.049452,327.0,NaN,6.696,3.0,25.6,22 / 25,173538,2020-03-20 15:45:57:254
4.687847,3.122039,-6.349423,8.0,49.831547,24.049452,327.0,NaN,6.696,3.0,25.6,21 / 25,174039,2020-03-20 15:45:57:755
-1.766921,18.526333,-1.699883,8.0,49.831547,24.049452,327.0,NaN,6.696,3.0,25.6,21 / 25,174539,2020-03-20 15:45:58:255
-3.98874,16.328455,-1.575385,8.0,49.831547,24.049452,327.0,NaN,6.696,3.0,25.6,20 / 25,175039,2020-03-20 15:45:58:755
2.231396,-7.85777,-3.672705,8.0,49.831547,24.049452,327.0,NaN,6.696,3.0,25.6,20 / 25,175539,2020-03-20 15:45:59:255
-2.595315,6.641516,6.947974,8.0,49.831547,24.049452,327.0,NaN,6.696,3.0,25.6,19 / 24,176038,2020-03-20 15:45:59:754
16.07467,13.182474,-4.893748,8.0,49.831547,24.049452,327.0,NaN,6.696,3.0,25.6,19 / 24,176538,2020-03-20 15:46:00:254
21.772873,13.9151,-2.566584,8.0,49.831547,24.049452,327.0,NaN,6.696,3.0,25.6,20 / 25,177038,2020-03-20 15:46:00:754
-1.628057,11.69807,4.64954,8.0,49.831547,24.049452,327.0,NaN,6.696,3.0,25.6,20 / 25,177539,2020-03-20 15:46:01:255
4.912902,-10.098742,-2.686294,8.0,49.831547,24.049452,327.0,NaN,6.696,3.0,25.6,20 / 23,178039,2020-03-20 15:46:01:755
-4.31914,18.488026,1.49877,8.0,49.831547,24.049452,327.0,NaN,6.696,3.0,25.6,20 / 23,178538,2020-03-20 15:46:02:254
0.746991,15.792154,4.836288,8.0,49.831547,24.049452,327.0,NaN,6.696,3.0,25.6,21 / 24,179038,2020-03-20 15:46:02:754
24.870968,28.3665,-3.495534,8.0,49.831547,24.049452,327.0,NaN,6.696,3.0,25.6,21 / 24,179539,2020-03-20 15:46:03:255
1.235408,2.944868,5.913678,8.0,49.831547,24.049452,327.0,NaN,6.696,3.0,25.6,22 / 25,180039,2020-03-20 15:46:03:755
-4.788403,4.807557,2.695871,8.0,49.831547,24.049452,327.0,NaN,6.696,3.0,25.6,22 / 25,180538,2020-03-20 15:46:04:254
21.289242,2.70066,-0.383072,8.0,49.831547,24.049452,327.0,NaN,6.696,3.0,25.6,21 / 25,181038,2020-03-20 15:46:04:754
24.890121,23.386562,4.185065,8.0,49.831547,24.049452,327.0,NaN,6.696,3.0,25.6,21 / 25,181539,2020-03-20 15:46:05:255
-4.620809,9.888053,1.417368,8.0,49.831547,24.049452,327.0,NaN,6.696,3.0,25.6,22 / 25,182039,2020-03-20 15:46:05:755
5.913678,-14.044387,-1.508347,8.0,49.831547,24.049452,327.0,NaN,6.696,3.0,25.6,22 / 25,182538,2020-03-20 15:46:06:254
3.567361,18.037916,7.024588,8.0,49.831547,24.049452,327.0,NaN,6.696,3.0,25.6,22 / 25,183038,2020-03-20 15:46:06:754
13.575124,24.38255,2.571373,8.0,49.831547,24.049452,327.0,NaN,6.696,3.0,25.6,22 / 25,183539,2020-03-20 15:46:07:255
8.207323,3.29921,-2.896984,8.0,49.831547,24.049452,327.0,NaN,6.696,3.0,25.6,20 / 25,184038,2020-03-20 15:46:07:754
15.370775,15.380352,-6.517017,8.0,49.831547,24.049452,327.0,NaN,6.696,3.0,25.6,20 / 25,184539,2020-03-20 15:46:08:255
-6.23929,6.761226,0.402226,8.0,49.831547,24.049452,327.0,NaN,6.696,3.0,25.6,20 / 25,185039,2020-03-20 15:46:08:755
3.371036,-10.874464,-5.39653,8.0,49.831547,24.049452,327.0,NaN,6.696,3.0,25.6,20 / 25,185538,2020-03-20 15:46:09:254
15.562311,33.782185,9.485827,8.0,49.831547,24.049452,327.0,NaN,6.696,3.0,25.6,22 / 25,186038,2020-03-20 15:46:09:754
-0.009577,12.708423,-1.493982,8.0,49.831547,24.049452,327.0,NaN,6.696,3.0,25.6,22 / 25,186539,2020-03-20 15:46:10:255
10.362105,-15.993267,-1.685518,8.0,49.831547,24.049452,327.0,NaN,6.696,3.0,25.6,20 / 25,187038,2020-03-20 15:46:10:754
14.954184,15.490485,3.667917,8.0,49.831547,24.049452,327.0,NaN,6.696,3.0,25.6,20 / 25,187538,2020-03-20 15:46:11:254
26.283546,28.66817,5.865794,8.0,49.831547,24.049452,327.0,NaN,6.696,3.0,25.6,22 / 25,188038,2020-03-20 15:46:11:754
3.529053,-5.444414,-3.323152,8.0,49.831547,24.049452,327.0,NaN,6.696,3.0,25.6,22 / 25,188538,2020-03-20 15:46:12:254
27.839775,25.052929,8.810662,8.0,49.831547,24.049452,327.0,NaN,6.696,3.0,25.6,21 / 25,189038,2020-03-20 15:46:12:754
-2.614468,10.189722,2.322376,8.0,49.831547,24.049452,327.0,NaN,6.696,3.0,25.6,21 / 25,189539,2020-03-20 15:46:13:255
1.216255,-17.568651,-1.604115,8.0,49.831547,24.049452,327.0,NaN,6.696,3.0,25.6,21 / 25,190039,2020-03-20 15:46:13:755
3.275268,21.466412,11.046846,8.0,49.831547,24.049452,327.0,NaN,6.696,3.0,25.6,21 / 25,190538,2020-03-20 15:46:14:254
7.675811,23.300371,0.023942,8.0,49.831547,24.049452,327.0,NaN,6.696,3.0,25.6,22 / 24,191039,2020-03-20 15:46:14:755
4.443639,-8.628703,-3.232172,8.0,49.831547,24.049452,327.0,NaN,6.696,3.0,25.6,22 / 24,191539,2020-03-20 15:46:15:255
-2.030283,2.183512,1.297657,8.0,49.832653,24.05034,332.0,NaN,10.62,3.0,42.8,21 / 23,192038,2020-03-20 15:46:15:754
-4.443638,7.694965,-1.039083,8.0,49.832653,24.05034,332.0,NaN,10.62,3.0,42.8,21 / 23,192539,2020-03-20 15:46:16:255
13.747506,-3.955221,-1.422156,8.0,49.832653,24.05034,332.0,NaN,10.62,3.0,42.8,21 / 22,193039,2020-03-20 15:46:16:755
17.621325,29.592333,6.095638,8.0,49.832653,24.05034,332.0,NaN,10.62,3.0,42.8,21 / 22,193539,2020-03-20 15:46:17:255
-4.91769,10.117896,1.757344,8.0,49.832653,24.05034,332.0,NaN,10.62,3.0,42.8,22 / 23,194038,2020-03-20 15:46:17:754
7.805098,-13.862428,-7.043741,8.0,49.832653,24.05034,332.0,NaN,10.62,3.0,42.8,22 / 23,194539,2020-03-20 15:46:18:255
8.963891,17.496826,2.96881,8.0,49.832653,24.05034,332.0,NaN,10.62,3.0,42.8,22 / 23,195039,2020-03-20 15:46:18:755
7.766791,23.9899,0.086191,8.0,49.832653,24.05034,332.0,NaN,10.62,3.0,42.8,22 / 23,195538,2020-03-20 15:46:19:254
3.447651,-5.181052,-2.221819,8.0,49.832653,24.05034,332.0,NaN,10.62,3.0,42.8,21 / 23,196038,2020-03-20 15:46:19:754
-2.916138,7.560889,-1.546654,8.0,49.832653,24.05034,332.0,NaN,10.62,3.0,42.8,21 / 23,196539,2020-03-20 15:46:20:255
-4.654328,10.242394,0.866701,8.0,49.832653,24.05034,332.0,NaN,10.62,3.0,42.8,22 / 23,197039,2020-03-20 15:46:20:755
4.122815,-17.745823,-1.575385,8.0,49.832653,24.05034,332.0,NaN,10.62,3.0,42.8,22 / 23,197538,2020-03-20 15:46:21:254
3.706224,18.607735,2.738967,8.0,49.832653,24.05034,332.0,NaN,10.62,3.0,42.8,18 / 23,198038,2020-03-20 15:46:21:754
9.768343,30.16694,-0.325611,8.0,49.832653,24.05034,332.0,NaN,10.62,3.0,42.8,18 / 23,198539,2020-03-20 15:46:22:255
3.289633,-9.634268,-3.902549,8.0,49.832653,24.05034,332.0,NaN,10.62,3.0,42.8,21 / 23,199038,2020-03-20 15:46:22:754
0.392649,9.797073,5.401319,8.0,49.832653,24.05034,332.0,NaN,10.62,3.0,42.8,21 / 23,199539,2020-03-20 15:46:23:255
11.405977,23.44881,-8.604761,8.0,49.832653,24.05034,332.0,NaN,10.62,3.0,42.8,22 / 23,200039,2020-03-20 15:46:23:755
8.561666,10.922348,-2.94008,8.0,49.832653,24.05034,332.0,NaN,10.62,3.0,42.8,22 / 23,200538,2020-03-20 15:46:24:254
-5.544971,4.228161,-3.65834,8.0,49.832653,24.05034,332.0,NaN,10.62,3.0,42.8,20 / 23,201038,2020-03-20 15:46:24:754
9.504981,24.152706,7.881712,8.0,49.832653,24.05034,332.0,NaN,10.62,3.0,42.8,20 / 23,201539,2020-03-20 15:46:25:255
2.418144,-4.663905,-0.852336,8.0,49.832653,24.05034,332.0,NaN,10.62,3.0,42.8,22 / 23,202039,2020-03-20 15:46:25:755
-1.312023,6.785168,5.353435,8.0,49.832653,24.05034,332.0,NaN,10.62,3.0,42.8,22 / 23,202538,2020-03-20 15:46:26:254
24.492683,29.668947,3.375825,8.0,49.832653,24.05034,332.0,NaN,10.62,3.0,42.8,21 / 23,203038,2020-03-20 15:46:26:754
8.092402,8.207323,-2.853888,8.0,49.832653,24.05034,332.0,NaN,10.62,3.0,42.8,21 / 23,203538,2020-03-20 15:46:27:254
-5.090072,3.801993,-2.533065,8.0,49.832653,24.05034,332.0,NaN,10.62,3.0,42.8,22 / 23,204038,2020-03-20 15:46:27:754
10.668563,-6.368576,-3.921702,8.0,49.832653,24.05034,332.0,NaN,10.62,3.0,42.8,22 / 23,204539,2020-03-20 15:46:28:255
24.167072,31.876402,3.715801,8.0,49.832653,24.05034,332.0,NaN,10.62,3.0,42.8,22 / 23,205039,2020-03-20 15:46:28:755
-2.911349,11.535264,-1.82917,8.0,49.832653,24.05034,332.0,NaN,10.62,3.0,42.8,22 / 23,205539,2020-03-20 15:46:29:255
19.115307,30.387209,-9.284714,8.0,49.832653,24.05034,332.0,NaN,10.62,3.0,42.8,22 / 23,206038,2020-03-20 15:46:29:754
7.790733,9.840169,-4.984728,8.0,49.832653,24.05034,332.0,NaN,10.62,3.0,42.8,22 / 23,206538,2020-03-20 15:46:30:254
-7.326257,6.584055,2.030283,8.0,49.832653,24.05034,332.0,NaN,10.62,3.0,42.8,22 / 23,207039,2020-03-20 15:46:30:755
1.896208,-15.734694,4.568137,8.0,49.832653,24.05034,332.0,NaN,10.62,3.0,42.8,22 / 23,207539,2020-03-20 15:46:31:255
27.087997,34.993652,2.384625,8.0,49.832653,24.05034,332.0,NaN,10.62,3.0,42.8,22 / 23,208038,2020-03-20 15:46:31:754
-0.560243,16.419436,-3.318364,8.0,49.832653,24.05034,332.0,NaN,10.62,3.0,42.8,22 / 23,208538,2020-03-20 15:46:32:254
4.893749,-17.420212,-1.35033,8.0,49.832653,24.05034,332.0,NaN,10.62,3.0,42.8,22 / 23,209038,2020-03-20 15:46:32:754
4.606444,12.813767,0.713472,8.0,49.832653,24.05034,332.0,NaN,10.62,3.0,42.8,22 / 23,209538,2020-03-20 15:46:33:254
-6.593631,6.976704,-1.029507,8.0,49.832653,24.05034,332.0,NaN,10.62,3.0,42.8,22 / 23,210039,2020-03-20 15:46:33:755
21.337126,23.740904,-19.838356,8.0,49.832653,24.05034,332.0,NaN,10.62,3.0,42.8,22 / 23,210538,2020-03-20 15:46:34:254
14.642938,12.339716,0.287304,8.0,49.832653,24.05034,332.0,NaN,10.62,3.0,42.8,21 / 23,211039,2020-03-20 15:46:34:755
-1.091756,10.46745,1.345541,8.0,49.832653,24.05034,332.0,NaN,10.62,3.0,42.8,21 / 23,211539,2020-03-20 15:46:35:255
1.37906,-13.211205,-6.564901,8.0,49.832653,24.05034,332.0,NaN,10.62,3.0,42.8,21 / 23,212038,2020-03-20 15:46:35:754
25.49825,26.144682,16.376339,8.0,49.832653,24.05034,332.0,NaN,10.62,3.0,42.8,21 / 23,212538,2020-03-20 15:46:36:254
-3.562572,9.088389,-1.302446,8.0,49.832653,24.05034,332.0,NaN,10.62,3.0,42.8,20 / 23,213039,2020-03-20 15:46:36:755
0.248997,-20.819979,-0.086191,8.0,49.832653,24.05034,332.0,NaN,10.62,3.0,42.8,20 / 23,213539,2020-03-20 15:46:37:255
4.702213,21.887793,2.154782,8.0,49.832653,24.05034,332.0,NaN,10.62,3.0,42.8,22 / 23,214039,2020-03-20 15:46:37:755
-2.116474,9.064447,2.164359,8.0,49.832653,24.05034,332.0,NaN,10.62,3.0,42.8,22 / 23,214538,2020-03-20 15:46:38:254
8.092402,13.469779,-6.090849,8.0,49.832653,24.05034,332.0,NaN,10.62,3.0,42.8,21 / 23,215038,2020-03-20 15:46:38:754
11.377247,11.779472,-13.52724,8.0,49.832653,24.05034,332.0,NaN,10.62,3.0,42.8,21 / 23,215539,2020-03-20 15:46:39:255
-4.869806,9.677363,-0.866701,8.0,49.832653,24.05034,332.0,NaN,10.62,3.0,42.8,21 / 23,216039,2020-03-20 15:46:39:755
1.182736,-22.088905,7.757214,8.0,49.832653,24.05034,332.0,NaN,10.62,3.0,42.8,21 / 23,216539,2020-03-20 15:46:40:255
-5.176264,20.920534,3.428497,8.0,49.832653,24.05034,332.0,NaN,10.62,3.0,42.8,22 / 23,217039,2020-03-20 15:46:40:755
4.055778,18.459295,3.184288,8.0,49.832653,24.05034,332.0,NaN,10.62,3.0,42.8,22 / 23,217539,2020-03-20 15:46:41:255
4.721366,-14.255077,-4.410119,8.0,49.832653,24.05034,332.0,NaN,10.62,3.0,42.8,21 / 23,218039,2020-03-20 15:46:41:755
9.921572,11.262324,-3.840299,8.0,49.832653,24.05034,332.0,NaN,10.62,3.0,42.8,21 / 23,218538,2020-03-20 15:46:42:254
-5.66947,5.588067,-0.71826,8.0,49.832653,24.05034,332.0,NaN,10.62,3.0,42.8,22 / 23,219039,2020-03-20 15:46:42:755
-0.421379,-19.752165,-7.987056,8.0,49.832653,24.05034,332.0,NaN,10.62,3.0,42.8,22 / 23,219539,2020-03-20 15:46:43:255
28.184542,35.515587,7.024588,8.0,49.832653,24.05034,332.0,NaN,10.62,3.0,42.8,21 / 23,220039,2020-03-20 15:46:43:755
3.993528,18.037916,-1.173159,8.0,49.832653,24.05034,332.0,NaN,10.62,3.0,42.8,21 / 23,220538,2020-03-20 15:46:44:254
6.612785,-15.380352,-4.13718,8.0,49.832653,24.05034,332.0,NaN,10.62,3.0,42.8,20 / 24,221038,2020-03-20 15:46:44:754
11.506534,13.934254,6.11958,8.0,49.832653,24.05034,332.0,NaN,10.62,3.0,42.8,20 / 24,221538,2020-03-20 15:46:45:254
8.99741,29.592333,6.622362,8.0,49.832653,24.05034,332.0,NaN,10.62,3.0,42.8,22 / 23,222039,2020-03-20 15:46:45:755
25.210943,2.552219,-4.510676,8.0,49.832653,24.05034,332.0,NaN,10.62,3.0,42.8,22 / 23,222539,2020-03-20 15:46:46:255
23.803154,30.3489,1.704672,8.0,49.832653,24.05034,332.0,NaN,10.62,3.0,42.8,22 / 25,223039,2020-03-20 15:46:46:755
-4.237737,10.520123,2.015918,8.0,49.832653,24.05034,332.0,NaN,10.62,3.0,42.8,22 / 25,223539,2020-03-20 15:46:47:255
4.644751,-20.039469,-4.012682,8.0,49.832653,24.05034,332.0,NaN,10.62,3.0,42.8,22 / 25,224039,2020-03-20 15:46:47:755
11.075577,20.623653,0.411803,8.0,49.832653,24.05034,332.0,NaN,10.62,3.0,42.8,22 / 25,224538,2020-03-20 15:46:48:254
14.719552,29.879637,5.051766,8.0,49.832653,24.05034,332.0,NaN,10.62,3.0,42.8,22 / 25,225038,2020-03-20 15:46:48:754
3.145981,-8.5473,-3.265691,8.0,49.832653,24.05034,332.0,NaN,10.62,3.0,42.8,22 / 25,225538,2020-03-20 15:46:49:254
-3.586514,6.967127,1.235408,8.0,49.832653,24.05034,332.0,NaN,10.62,3.0,42.8,21 / 24,226038,2020-03-20 15:46:49:754
-1.82917,9.11712,0.354342,8.0,49.832653,24.05034,332.0,NaN,10.62,3.0,42.8,21 / 24,226539,2020-03-20 15:46:50:255
0.225055,-9.342175,-8.748413,8.0,49.832653,24.05034,332.0,NaN,10.62,3.0,42.8,21 / 24,227039,2020-03-20 15:46:50:755
23.970745,25.158272,9.682152,8.0,49.832653,24.05034,332.0,NaN,10.62,3.0,42.8,21 / 24,227539,2020-03-20 15:46:51:255
-6.722918,9.466674,-1.450886,8.0,49.832653,24.05034,332.0,NaN,10.62,3.0,42.8,22 / 24,228039,2020-03-20 15:46:51:755
-4.845864,-20.781672,-0.972046,8.0,49.832653,24.05034,332.0,NaN,10.62,3.0,42.8,22 / 24,228539,2020-03-20 15:46:52:255
3.485958,26.690561,5.444415,8.0,49.832653,24.05034,332.0,NaN,10.62,3.0,42.8,22 / 24,229038,2020-03-20 15:46:52:754
1.000776,20.09693,9.284714,8.0,49.832653,24.05034,332.0,NaN,10.62,3.0,42.8,22 / 24,229538,2020-03-20 15:46:53:254
4.031836,-17.501614,-3.979163,8.0,49.832653,24.05034,332.0,NaN,10.62,3.0,42.8,22 / 24,230038,2020-03-20 15:46:53:754
3.797204,13.129802,3.236961,8.0,49.832653,24.05034,332.0,NaN,10.62,3.0,42.8,22 / 24,230539,2020-03-20 15:46:54:255
8.887277,27.849354,4.414908,8.0,49.832653,24.05034,332.0,NaN,10.62,3.0,42.8,22 / 24,231038,2020-03-20 15:46:54:754
21.217415,3.567361,-5.573701,8.0,49.832653,24.05034,332.0,NaN,10.62,3.0,42.8,22 / 24,231539,2020-03-20 15:46:55:255
28.06962,32.87718,3.859453,8.0,49.832653,24.05034,332.0,NaN,10.62,3.0,42.8,22 / 24,232039,2020-03-20 15:46:55:755
-2.226607,11.870452,-0.737414,8.0,49.832653,24.05034,332.0,NaN,10.62,3.0,42.8,22 / 24,232539,2020-03-20 15:46:56:255
-0.957681,-18.248606,-0.732626,8.0,49.832653,24.05034,332.0,NaN,10.62,3.0,42.8,22 / 24,233038,2020-03-20 15:46:56:754
2.27928,26.317064,2.734178,8.0,49.832653,24.05034,332.0,NaN,10.62,3.0,42.8,22 / 24,233538,2020-03-20 15:46:57:254
2.461239,23.87498,3.165135,8.0,49.832653,24.05034,332.0,NaN,10.62,3.0,42.8,22 / 24,234038,2020-03-20 15:46:57:754
3.040636,-6.23929,-5.688623,8.0,49.832653,24.05034,332.0,NaN,10.62,3.0,42.8,22 / 24,234539,2020-03-20 15:46:58:255
-1.489193,8.920795,-1.977611,8.0,49.832653,24.05034,332.0,NaN,10.62,3.0,42.8,21 / 24,235039,2020-03-20 15:46:58:755
-5.147533,4.050989,-1.316811,8.0,49.832653,24.05034,332.0,NaN,10.62,3.0,42.8,21 / 24,235539,2020-03-20 15:46:59:255
-0.11971,-11.664551,-4.237737,8.0,49.832653,24.05034,332.0,NaN,10.62,3.0,42.8,22 / 24,236039,2020-03-20 15:46:59:755
12.11466,34.85,17.357962,8.0,49.832653,24.05034,332.0,NaN,10.62,3.0,42.8,22 / 24,236539,2020-03-20 15:47:00:255
-3.289633,14.159308,-5.224148,8.0,49.832653,24.05034,332.0,NaN,10.62,3.0,42.8,20 / 23,237038,2020-03-20 15:47:00:754
3.639187,-14.853627,-3.150769,8.0,49.832653,24.05034,332.0,NaN,10.62,3.0,42.8,20 / 23,237539,2020-03-20 15:47:01:255
7.015011,18.708292,3.069367,8.0,49.832653,24.05034,332.0,NaN,10.62,3.0,42.8,21 / 23,238039,2020-03-20 15:47:01:755
9.797073,27.327417,3.031059,8.0,49.832653,24.05034,332.0,NaN,10.62,3.0,42.8,21 / 23,238538,2020-03-20 15:47:02:254
0.684742,-6.038176,-2.868254,8.0,49.832653,24.05034,332.0,NaN,10.62,3.0,42.8,21 / 23,239038,2020-03-20 15:47:02:754
17.24304,28.965052,5.056554,8.0,49.832653,24.05034,332.0,NaN,10.62,3.0,42.8,21 / 23,239539,2020-03-20 15:47:03:255
-6.138733,7.570466,-0.952892,8.0,49.833675,24.051939,333.0,NaN,12.168,2.5,43.3,21 / 23,240038,2020-03-20 15:47:03:754
9.366117,-16.213533,-5.358223,8.0,49.833675,24.051939,333.0,NaN,12.168,2.5,43.3,21 / 23,240538,2020-03-20 15:47:04:254
3.20823,24.305935,10.141838,8.0,49.833675,24.051939,333.0,NaN,12.168,2.5,43.3,20 / 23,241038,2020-03-20 15:47:04:754
6.646304,25.79034,0.244209,8.0,49.833675,24.051939,333.0,NaN,12.168,2.5,43.3,20 / 23,241539,2020-03-20 15:47:05:255
4.194642,-6.694188,0.6608,8.0,49.833675,24.051939,333.0,NaN,12.168,2.5,43.3,21 / 23,242038,2020-03-20 15:47:05:754
-4.55856,11.482592,9.083601,8.0,49.833675,24.051939,333.0,NaN,12.168,2.5,43.3,21 / 23,242538,2020-03-20 15:47:06:254
21.222204,30.032866,-1.11091,8.0,49.833675,24.051939,333.0,NaN,12.168,2.5,43.3,22 / 23,243038,2020-03-20 15:47:06:754
-3.830723,-17.769766,-6.014234,8.0,49.833675,24.051939,333.0,NaN,12.168,2.5,43.3,22 / 23,243538,2020-03-20 15:47:07:254
12.488156,33.356018,9.983821,8.0,49.833675,24.051939,333.0,NaN,12.168,2.5,43.3,21 / 23,244038,2020-03-20 15:47:07:754
-4.170699,12.674904,-0.354342,8.0,49.833675,24.051939,333.0,NaN,12.168,2.5,43.3,21 / 23,244539,2020-03-20 15:47:08:255
2.537854,-20.51352,-4.338293,8.0,49.833675,24.051939,333.0,NaN,12.168,2.5,43.3,21 / 23,245039,2020-03-20 15:47:08:755
-0.344765,22.079329,2.389413,8.0,49.833675,24.051939,333.0,NaN,12.168,2.5,43.3,21 / 23,245538,2020-03-20 15:47:09:254
-2.025495,21.370644,7.187394,8.0,49.833675,24.051939,333.0,NaN,12.168,2.5,43.3,18 / 22,246038,2020-03-20 15:47:09:754
0.363919,-16.745047,-1.302446,8.0,49.833675,24.051939,333.0,NaN,12.168,2.5,43.3,18 / 22,246539,2020-03-20 15:47:10:255
0.938527,10.884041,-3.68707,8.0,49.833675,24.051939,333.0,NaN,12.168,2.5,43.3,21 / 23,247039,2020-03-20 15:47:10:755
15.016433,27.949911,0.292093,8.0,49.833675,24.051939,333.0,NaN,12.168,2.5,43.3,21 / 23,247538,2020-03-20 15:47:11:254
28.720844,14.987702,4.089296,8.0,49.833675,24.051939,333.0,NaN,12.168,2.5,43.3,22 / 23,248038,2020-03-20 15:47:11:754
7.311892,14.5759,-3.217807,8.0,49.833675,24.051939,333.0,NaN,12.168,2.5,43.3,22 / 23,248539,2020-03-20 15:47:12:255
-2.571372,7.82904,4.510676,8.0,49.833675,24.051939,333.0,NaN,12.168,2.5,43.3,23 / 24,249038,2020-03-20 15:47:12:754
14.858416,-6.947973,1.853112,8.0,49.833675,24.051939,333.0,NaN,12.168,2.5,43.3,23 / 24,249538,2020-03-20 15:47:13:254
7.651869,20.42254,0.023942,8.0,49.833675,24.051939,333.0,NaN,12.168,2.5,43.3,23 / 25,250038,2020-03-20 15:47:13:754
2.389413,17.808075,-2.011129,8.0,49.833675,24.051939,333.0,NaN,12.168,2.5,43.3,23 / 25,250538,2020-03-20 15:47:14:254
-5.525817,-19.756952,-23.305159,8.0,49.833675,24.051939,333.0,NaN,12.168,2.5,43.3,23 / 25,251038,2020-03-20 15:47:14:754
4.189853,11.420342,-2.092532,8.0,49.833675,24.051939,333.0,NaN,12.168,2.5,43.3,23 / 25,251539,2020-03-20 15:47:15:255
-5.616797,3.715801,2.336741,8.0,49.833675,24.051939,333.0,NaN,12.168,2.5,43.3,23 / 25,252039,2020-03-20 15:47:15:755
17.554285,16.725893,-1.991976,8.0,49.833675,24.051939,333.0,NaN,12.168,2.5,43.3,23 / 25,252538,2020-03-20 15:47:16:254
12.157756,10.180145,-12.392388,8.0,49.833675,24.051939,333.0,NaN,12.168,2.5,43.3,22 / 25,253038,2020-03-20 15:47:16:754
-3.29921,8.63828,-3.940856,8.0,49.833675,24.051939,333.0,NaN,12.168,2.5,43.3,22 / 25,253539,2020-03-20 15:47:17:255
6.277597,-14.259866,0.368707,8.0,49.833675,24.051939,333.0,NaN,12.168,2.5,43.3,22 / 25,254039,2020-03-20 15:47:17:755
13.335704,30.880413,20.130447,8.0,49.833675,24.051939,333.0,NaN,12.168,2.5,43.3,22 / 25,254538,2020-03-20 15:47:18:254
-5.051765,5.386954,-0.526724,8.0,49.833675,24.051939,333.0,NaN,12.168,2.5,43.3,23 / 25,255038,2020-03-20 15:47:18:754
-1.690306,-17.51119,-2.571372,8.0,49.833675,24.051939,333.0,NaN,12.168,2.5,43.3,23 / 25,255539,2020-03-20 15:47:19:255
7.872135,35.462917,6.670246,8.0,49.833675,24.051939,333.0,NaN,12.168,2.5,43.3,23 / 25,256039,2020-03-20 15:47:19:755
-9.466674,4.525041,-7.144298,8.0,49.833675,24.051939,333.0,NaN,12.168,2.5,43.3,23 / 25,256539,2020-03-20 15:47:20:255
18.195932,34.648888,-3.691859,8.0,49.833675,24.051939,333.0,NaN,12.168,2.5,43.3,23 / 25,257038,2020-03-20 15:47:20:754
2.13084,-12.770672,1.757344,8.0,49.833675,24.051939,333.0,NaN,12.168,2.5,43.3,23 / 25,257538,2020-03-20 15:47:21:254
5.808334,10.443508,-10.433931,8.0,49.833675,24.051939,333.0,NaN,12.168,2.5,43.3,23 / 25,258038,2020-03-20 15:47:21:754
18.6221,29.314606,5.822699,8.0,49.833675,24.051939,333.0,NaN,12.168,2.5,43.3,23 / 25,258538,2020-03-20 15:47:22:254
0.636858,-9.097966,-4.113238,8.0,49.833675,24.051939,333.0,NaN,12.168,2.5,43.3,23 / 25,259039,2020-03-20 15:47:22:755
-0.694318,10.175357,0.517148,8.0,49.833675,24.051939,333.0,NaN,12.168,2.5,43.3,23 / 25,259538,2020-03-20 15:47:23:254
26.853367,37.04788,0.713472,8.0,49.833675,24.051939,333.0,NaN,12.168,2.5,43.3,22 / 25,260038,2020-03-20 15:47:23:754
2.221819,-7.268796,-1.177947,8.0,49.833675,24.051939,333.0,NaN,12.168,2.5,43.3,22 / 25,260538,2020-03-20 15:47:24:254
-1.292869,5.588067,1.297657,8.0,49.833675,24.051939,333.0,NaN,12.168,2.5,43.3,23 / 25,261039,2020-03-20 15:47:24:755
-8.729259,13.077129,-0.565032,8.0,49.833675,24.051939,333.0,NaN,12.168,2.5,43.3,23 / 25,261539,2020-03-20 15:47:25:255
9.251195,-8.312668,-3.409343,8.0,49.833675,24.051939,333.0,NaN,12.168,2.5,43.3,23 / 25,262039,2020-03-20 15:47:25:755
21.4712,28.04568,-5.243302,8.0,49.833675,24.051939,333.0,NaN,12.168,2.5,43.3,23 / 25,262538,2020-03-20 15:47:26:254
-4.314351,8.772355,-5.0374,8.0,49.833675,24.051939,333.0,NaN,12.168,2.5,43.3,23 / 25,263038,2020-03-20 15:47:26:754
0.890643,-14.824897,1.278504,8.0,49.833675,24.051939,333.0,NaN,12.168,2.5,43.3,23 / 25,263539,2020-03-20 15:47:27:255
18.966866,35.142094,14.920665,8.0,49.833675,24.051939,333.0,NaN,12.168,2.5,43.3,22 / 24,264039,2020-03-20 15:47:27:755
-6.512228,9.68694,-2.327164,8.0,49.833675,24.051939,333.0,NaN,12.168,2.5,43.3,22 / 24,264539,2020-03-20 15:47:28:255
-0.167594,-16.026787,-3.05979,8.0,49.833675,24.051939,333.0,NaN,12.168,2.5,43.3,23 / 25,265038,2020-03-20 15:47:28:754
15.365987,27.56205,4.060566,8.0,49.833675,24.051939,333.0,NaN,12.168,2.5,43.3,23 / 25,265539,2020-03-20 15:47:29:255
-6.301539,7.240066,-3.122039,8.0,49.833675,24.051939,333.0,NaN,12.168,2.5,43.3,23 / 25,266038,2020-03-20 15:47:29:754
3.543419,26.139894,-6.995857,8.0,49.833675,24.051939,333.0,NaN,12.168,2.5,43.3,23 / 25,266538,2020-03-20 15:47:30:254
4.477157,-24.899698,5.822699,8.0,49.833675,24.051939,333.0,NaN,12.168,2.5,43.3,23 / 25,267039,2020-03-20 15:47:30:755
9.586384,10.43872,-3.591303,8.0,49.833675,24.051939,333.0,NaN,12.168,2.5,43.3,23 / 25,267539,2020-03-20 15:47:31:255
-1.154005,19.393034,-3.926491,8.0,49.833675,24.051939,333.0,NaN,12.168,2.5,43.3,23 / 25,268039,2020-03-20 15:47:31:755
2.092532,-15.413871,-5.712565,8.0,49.833675,24.051939,333.0,NaN,12.168,2.5,43.3,23 / 25,268538,2020-03-20 15:47:32:254
3.945645,10.553641,3.897761,8.0,49.833675,24.051939,333.0,NaN,12.168,2.5,43.3,21 / 25,269039,2020-03-20 15:47:32:755
13.263878,27.758375,9.165004,8.0,49.833675,24.051939,333.0,NaN,12.168,2.5,43.3,21 / 25,269539,2020-03-20 15:47:33:255
3.026271,-5.406107,-2.126051,8.0,49.833675,24.051939,333.0,NaN,12.168,2.5,43.3,21 / 25,270039,2020-03-20 15:47:33:755
27.092787,26.906038,-0.651223,8.0,49.833675,24.051939,333.0,NaN,12.168,2.5,43.3,21 / 25,270538,2020-03-20 15:47:34:254
-4.592078,5.846641,-3.040636,8.0,49.833675,24.051939,333.0,NaN,12.168,2.5,43.3,21 / 25,271038,2020-03-20 15:47:34:754
6.521806,-17.195156,2.949657,8.0,49.833675,24.051939,333.0,NaN,12.168,2.5,43.3,21 / 25,271539,2020-03-20 15:47:35:255
4.544195,29.999348,1.824382,8.0,49.833675,24.051939,333.0,NaN,12.168,2.5,43.3,21 / 25,272039,2020-03-20 15:47:35:755
-1.661576,14.633361,-0.833182,8.0,49.833675,24.051939,333.0,NaN,12.168,2.5,43.3,21 / 25,272538,2020-03-20 15:47:36:254
2.466028,-19.096153,-7.939172,8.0,49.833675,24.051939,333.0,NaN,12.168,2.5,43.3,20 / 25,273038,2020-03-20 15:47:36:754
-8.001422,26.494236,14.499286,8.0,49.833675,24.051939,333.0,NaN,12.168,2.5,43.3,20 / 25,273538,2020-03-20 15:47:37:254
-6.607996,10.702082,-2.87783,8.0,49.833675,24.051939,333.0,NaN,12.168,2.5,43.3,22 / 25,274039,2020-03-20 15:47:37:755
9.643845,-16.127342,-2.676717,8.0,49.833675,24.051939,333.0,NaN,12.168,2.5,43.3,22 / 25,274539,2020-03-20 15:47:38:255
5.822699,3.72059,-8.298302,8.0,49.833675,24.051939,333.0,NaN,12.168,2.5,43.3,22 / 25,275038,2020-03-20 15:47:38:754
-8.944737,6.545748,7.728483,8.0,49.833675,24.051939,333.0,NaN,12.168,2.5,43.3,22 / 25,275538,2020-03-20 15:47:39:254
28.88365,14.12579,5.712566,8.0,49.833675,24.051939,333.0,NaN,12.168,2.5,43.3,21 / 25,276038,2020-03-20 15:47:39:754
19.541473,17.851168,-3.955221,8.0,49.833675,24.051939,333.0,NaN,12.168,2.5,43.3,21 / 25,276539,2020-03-20 15:47:40:255
-6.081272,6.315904,-0.033519,8.0,49.833675,24.051939,333.0,NaN,12.168,2.5,43.3,22 / 24,277038,2020-03-20 15:47:40:754
-5.559336,-17.808075,0.526724,8.0,49.833675,24.051939,333.0,NaN,12.168,2.5,43.3,22 / 24,277538,2020-03-20 15:47:41:254
14.077906,33.8588,4.328717,8.0,49.833675,24.051939,333.0,NaN,12.168,2.5,43.3,21 / 24,278039,2020-03-20 15:47:41:755
-6.981492,10.936713,9.030929,8.0,49.833675,24.051939,333.0,NaN,12.168,2.5,43.3,21 / 24,278538,2020-03-20 15:47:42:254
28.04089,39.08774,-13.388376,8.0,49.833675,24.051939,333.0,NaN,12.168,2.5,43.3,22 / 25,279038,2020-03-20 15:47:42:754
4.917691,1.35033,-4.850652,8.0,49.833675,24.051939,333.0,NaN,12.168,2.5,43.3,22 / 25,279538,2020-03-20 15:47:43:254
-9.308656,6.229713,5.779603,8.0,49.833675,24.051939,333.0,NaN,12.168,2.5,43.3,21 / 25,280039,2020-03-20 15:47:43:755
11.429919,23.084892,-0.766144,8.0,49.833675,24.051939,333.0,NaN,12.168,2.5,43.3,21 / 25,280539,2020-03-20 15:47:44:255
5.473145,11.659762,-13.330915,8.0,49.833675,24.051939,333.0,NaN,12.168,2.5,43.3,20 / 24,281038,2020-03-20 15:47:44:754
-5.564124,3.725378,-2.691083,8.0,49.833675,24.051939,333.0,NaN,12.168,2.5,43.3,20 / 24,281538,2020-03-20 15:47:45:254
6.224925,-8.954314,-2.154781,8.0,49.833675,24.051939,333.0,NaN,12.168,2.5,43.3,19 / 23,282038,2020-03-20 15:47:45:754
25.94357,25.239674,-1.039083,8.0,49.833675,24.051939,333.0,NaN,12.168,2.5,43.3,18 / 23,282539,2020-03-20 15:47:46:255
-2.806004,8.2169,-0.790087,8.0,49.833675,24.051939,333.0,NaN,12.168,2.5,43.3,18 / 23,283050,2020-03-20 15:47:46:766
2.499547,-14.221559,-2.432509,8.0,49.833675,24.051939,333.0,NaN,12.168,2.5,43.3,19 / 25,283538,2020-03-20 15:47:47:254
3.682282,-8.719683,-3.849876,8.0,49.833675,24.051939,333.0,NaN,12.168,2.5,43.3,19 / 25,284038,2020-03-20 15:47:47:754
0.440533,8.418014,8.240842,8.0,49.833675,24.051939,333.0,NaN,12.168,2.5,43.3,18 / 23,284538,2020-03-20 15:47:48:254
1.953669,24.066513,-3.375824,8.0,49.833675,24.051939,333.0,NaN,12.168,2.5,43.3,18 / 23,285038,2020-03-20 15:47:48:754
4.252103,6.880936,-0.847547,8.0,49.833675,24.051939,333.0,NaN,12.168,2.5,43.3,20 / 25,285539,2020-03-20 15:47:49:255
-6.598419,6.842629,-0.708684,8.0,49.833675,24.051939,333.0,NaN,12.168,2.5,43.3,20 / 25,286038,2020-03-20 15:47:49:754
7.254431,-6.469133,-3.864241,8.0,49.833675,24.051939,333.0,NaN,12.168,2.5,43.3,20 / 25,286538,2020-03-20 15:47:50:254
20.36029,23.501484,8.532935,8.0,49.833675,24.051939,333.0,NaN,12.168,2.5,43.3,19 / 25,287039,2020-03-20 15:47:50:755
-6.703765,6.287174,0.474052,8.0,49.833675,24.051939,333.0,NaN,12.168,2.5,43.3,19 / 25,287538,2020-03-20 15:47:51:254
6.698977,24.315512,1.690306,8.0,49.83499,24.05296,333.0,NaN,10.404,3.5,37.2,21 / 24,288039,2020-03-20 15:47:51:755
3.964798,-9.361329,-4.362235,8.0,49.83499,24.05296,333.0,NaN,10.404,3.5,37.2,21 / 24,288538,2020-03-20 15:47:52:254
-1.010353,9.524135,2.667141,8.0,49.83499,24.05296,333.0,NaN,10.404,3.5,37.2,20 / 24,289038,2020-03-20 15:47:52:754
14.609419,27.518955,3.007117,8.0,49.83499,24.05296,333.0,NaN,10.404,3.5,37.2,20 / 24,289538,2020-03-20 15:47:53:254
5.616797,6.871359,-1.80044,8.0,49.83499,24.05296,333.0,NaN,10.404,3.5,37.2,19 / 25,290038,2020-03-20 15:47:53:754
-7.254431,5.951986,2.748544,8.0,49.83499,24.05296,333.0,NaN,10.404,3.5,37.2,20 / 25,290540,2020-03-20 15:47:54:256
14.460979,16.342821,-0.320823,8.0,49.83499,24.05296,333.0,NaN,10.404,3.5,37.2,20 / 25,291040,2020-03-20 15:47:54:756
7.704541,6.856994,-6.847417,8.0,49.83499,24.05296,333.0,NaN,10.404,3.5,37.2,20 / 25,291538,2020-03-20 15:47:55:254
-2.810793,24.703371,16.836027,8.0,49.83499,24.05296,333.0,NaN,10.404,3.5,37.2,19 / 25,292038,2020-03-20 15:47:55:754
6.828264,24.344242,0.09098,8.0,49.83499,24.05296,333.0,NaN,10.404,3.5,37.2,21 / 24,292538,2020-03-20 15:47:56:254
2.1883,-10.089166,-2.446874,8.0,49.83499,24.05296,333.0,NaN,10.404,3.5,37.2,21 / 24,293039,2020-03-20 15:47:56:755
-0.076614,8.312668,2.892196,8.0,49.83499,24.05296,333.0,NaN,10.404,3.5,37.2,21 / 24,293539,2020-03-20 15:47:57:255
36.73663,39.01591,1.321599,8.0,49.83499,24.05296,333.0,NaN,10.404,3.5,37.2,21 / 24,294039,2020-03-20 15:47:57:755
6.842629,5.157111,-5.755661,8.0,49.83499,24.05296,333.0,NaN,10.404,3.5,37.2,21 / 24,294538,2020-03-20 15:47:58:254
-6.23929,5.511452,0.311246,8.0,49.83499,24.05296,333.0,NaN,10.404,3.5,37.2,21 / 25,295038,2020-03-20 15:47:58:754
8.010999,9.514558,1.364695,8.0,49.83499,24.05296,333.0,NaN,10.404,3.5,37.2,19 / 25,295539,2020-03-20 15:47:59:255
4.228161,-16.51999,-0.186748,8.0,49.83499,24.05296,333.0,NaN,10.404,3.5,37.2,19 / 25,296039,2020-03-20 15:47:59:755
4.764462,23.171083,3.792416,8.0,49.83499,24.05296,333.0,NaN,10.404,3.5,37.2,22 / 25,296539,2020-03-20 15:48:00:255
7.493851,25.445576,5.224149,8.0,49.83499,24.05296,333.0,NaN,10.404,3.5,37.2,22 / 25,297038,2020-03-20 15:48:00:754
3.773262,-9.509769,-1.762132,8.0,49.83499,24.05296,333.0,NaN,10.404,3.5,37.2,22 / 25,297539,2020-03-20 15:48:01:255
0.857124,6.512229,4.414908,8.0,49.83499,24.05296,333.0,NaN,10.404,3.5,37.2,22 / 25,298039,2020-03-20 15:48:01:755
34.73987,32.78141,9.040505,8.0,49.83499,24.05296,333.0,NaN,10.404,3.5,37.2,21 / 25,298538,2020-03-20 15:48:02:254
2.94008,1.201889,-0.129287,8.0,49.83499,24.05296,333.0,NaN,10.404,3.5,37.2,21 / 25,299039,2020-03-20 15:48:02:755
-5.841852,4.242526,-0.162806,8.0,49.83499,24.05296,333.0,NaN,10.404,3.5,37.2,22 / 25,299538,2020-03-20 15:48:03:254
-1.996764,16.500837,1.106121,8.0,49.83499,24.05296,333.0,NaN,10.404,3.5,37.2,22 / 25,300039,2020-03-20 15:48:03:755
13.718776,-13.536817,-2.049437,8.0,49.83499,24.05296,333.0,NaN,10.404,3.5,37.2,20 / 24,300538,2020-03-20 15:48:04:254
0.158017,14.00608,3.366248,8.0,49.83499,24.05296,333.0,NaN,10.404,3.5,37.2,20 / 24,301038,2020-03-20 15:48:04:754
16.184803,29.30024,13.369223,8.0,49.83499,24.05296,333.0,NaN,10.404,3.5,37.2,22 / 24,301539,2020-03-20 15:48:05:255
1.781286,-5.530606,-5.363012,8.0,49.83499,24.05296,333.0,NaN,10.404,3.5,37.2,22 / 24,302038,2020-03-20 15:48:05:754
3.696648,10.783484,1.881843,8.0,49.83499,24.05296,333.0,NaN,10.404,3.5,37.2,22 / 24,302539,2020-03-20 15:48:06:255
10.572795,25.536556,-3.907337,8.0,49.83499,24.05296,333.0,NaN,10.404,3.5,37.2,23 / 25,303038,2020-03-20 15:48:06:754
7.489063,1.742979,3.126828,8.0,49.83499,24.05296,333.0,NaN,10.404,3.5,37.2,24 / 26,303538,2020-03-20 15:48:07:254
8.714894,25.234886,3.078944,8.0,49.83499,24.05296,333.0,NaN,10.404,3.5,37.2,24 / 26,304039,2020-03-20 15:48:07:755
3.945645,18.981232,8.911219,8.0,49.83499,24.05296,333.0,NaN,10.404,3.5,37.2,22 / 26,304538,2020-03-20 15:48:08:254
6.167464,-10.697293,-1.934515,8.0,49.83499,24.05296,333.0,NaN,10.404,3.5,37.2,22 / 26,305039,2020-03-20 15:48:08:755
6.813898,6.066907,0.684742,8.0,49.83499,24.05296,333.0,NaN,10.404,3.5,37.2,23 / 26,305539,2020-03-20 15:48:09:255
39.188293,39.18351,2.542642,8.0,49.83499,24.05296,333.0,NaN,10.404,3.5,37.2,23 / 26,306038,2020-03-20 15:48:09:754
-1.580173,-1.853112,-2.403778,8.0,49.83499,24.05296,333.0,NaN,10.404,3.5,37.2,24 / 27,306538,2020-03-20 15:48:10:254
0.756568,9.500193,1.479617,8.0,49.83499,24.05296,333.0,NaN,10.404,3.5,37.2,24 / 27,307038,2020-03-20 15:48:10:754
17.33402,6.071696,-2.499546,8.0,49.83499,24.05296,333.0,NaN,10.404,3.5,37.2,24 / 27,307539,2020-03-20 15:48:11:255
8.887277,-9.715671,-8.312668,8.0,49.83499,24.05296,333.0,NaN,10.404,3.5,37.2,24 / 27,308038,2020-03-20 15:48:11:754
-2.782062,8.939949,3.586514,8.0,49.83499,24.05296,333.0,NaN,10.404,3.5,37.2,24 / 27,308538,2020-03-20 15:48:12:254
6.157887,24.507048,9.691729,8.0,49.83499,24.05296,333.0,NaN,10.404,3.5,37.2,23 / 27,309038,2020-03-20 15:48:12:754
8.791509,10.175357,6.933608,8.0,49.83499,24.05296,333.0,NaN,10.404,3.5,37.2,23 / 27,309539,2020-03-20 15:48:13:255
-7.153875,11.693281,-2.03986,8.0,49.83499,24.05296,333.0,NaN,10.404,3.5,37.2,23 / 27,310039,2020-03-20 15:48:13:755
17.022774,-5.286397,-0.086191,8.0,49.83499,24.05296,333.0,NaN,10.404,3.5,37.2,23 / 27,310538,2020-03-20 15:48:14:254
28.711267,24.79914,7.07726,8.0,49.83499,24.05296,333.0,NaN,10.404,3.5,37.2,23 / 27,311039,2020-03-20 15:48:14:755
-3.011906,7.493851,-3.41892,0.0,49.83499,24.05296,333.0,NaN,10.404,3.5,37.2,23 / 27,311539,2020-03-20 15:48:15:255
23.444023,36.19075,3.725378,8.0,49.83499,24.05296,333.0,NaN,10.404,3.5,37.2,23 / 27,312038,2020-03-20 15:48:15:754
3.586514,-7.139509,-4.22816,8.0,49.83499,24.05296,333.0,NaN,10.404,3.5,37.2,23 / 27,312538,2020-03-20 15:48:16:254
-2.868254,6.890513,2.858677,8.0,49.83499,24.05296,333.0,NaN,10.404,3.5,37.2,23 / 27,313038,2020-03-20 15:48:16:754
-1.632845,13.680469,-9.366117,8.0,49.83499,24.05296,333.0,NaN,10.404,3.5,37.2,23 / 27,313538,2020-03-20 15:48:17:254
11.506534,15.969325,-2.03986,8.0,49.83499,24.05296,333.0,NaN,10.404,3.5,37.2,23 / 27,314039,2020-03-20 15:48:17:755
-4.577713,4.43885,-1.35033,8.0,49.83499,24.05296,333.0,NaN,10.404,3.5,37.2,23 / 27,314539,2020-03-20 15:48:18:255
-1.843535,-13.905523,-4.252102,8.0,49.83499,24.05296,333.0,NaN,10.404,3.5,37.2,23 / 27,315039,2020-03-20 15:48:18:755
11.712435,24.583664,6.459556,8.0,49.83499,24.05296,333.0,NaN,10.404,3.5,37.2,23 / 27,315538,2020-03-20 15:48:19:254
1.11091,15.883134,-0.311246,8.0,49.83499,24.05296,333.0,NaN,10.404,3.5,37.2,23 / 27,316038,2020-03-20 15:48:19:754
24.598028,18.6221,3.86903,8.0,49.83499,24.05296,333.0,NaN,10.404,3.5,37.2,23 / 27,316538,2020-03-20 15:48:20:254
2.60968,1.479617,-1.517924,8.0,49.83499,24.05296,333.0,NaN,10.404,3.5,37.2,23 / 27,317039,2020-03-20 15:48:20:755
-6.426037,5.372589,1.446098,0.0,49.83499,24.05296,333.0,NaN,10.404,3.5,37.2,23 / 27,317539,2020-03-20 15:48:21:255
17.45373,2.140417,5.032612,8.0,49.83499,24.05296,333.0,NaN,10.404,3.5,37.2,23 / 26,318038,2020-03-20 15:48:21:754
18.23424,32.192436,8.049306,8.0,49.83499,24.05296,333.0,NaN,10.404,3.5,37.2,23 / 26,318538,2020-03-20 15:48:22:254
0.976834,13.986926,1.072602,8.0,49.83499,24.05296,333.0,NaN,10.404,3.5,37.2,23 / 26,319038,2020-03-20 15:48:22:754
8.063671,-18.186356,-3.873818,8.0,49.83499,24.05296,333.0,NaN,10.404,3.5,37.2,23 / 26,319539,2020-03-20 15:48:23:255
2.011129,14.772224,7.321469,8.0,49.83499,24.05296,333.0,NaN,10.404,3.5,37.2,23 / 26,320038,2020-03-20 15:48:23:754
-5.645528,7.460333,5.899313,8.0,49.83499,24.05296,333.0,NaN,10.404,3.5,37.2,23 / 26,320539,2020-03-20 15:48:24:255
16.936583,2.183512,-4.046201,8.0,49.83499,24.05296,333.0,NaN,10.404,3.5,37.2,23 / 26,321039,2020-03-20 15:48:24:755
9.902418,12.014104,10.357317,8.0,49.83499,24.05296,333.0,NaN,10.404,3.5,37.2,23 / 26,321538,2020-03-20 15:48:25:254
-8.073248,6.856994,0.215478,8.0,49.83499,24.05296,333.0,NaN,10.404,3.5,37.2,23 / 26,322038,2020-03-20 15:48:25:754
0.282516,-13.742718,-3.050213,8.0,49.83499,24.05296,333.0,NaN,10.404,3.5,37.2,23 / 26,322538,2020-03-20 15:48:26:254
19.637243,37.94331,8.920795,8.0,49.83499,24.05296,333.0,NaN,10.404,3.5,37.2,23 / 26,323038,2020-03-20 15:48:26:754
1.086968,15.399506,3.356671,8.0,49.83499,24.05296,333.0,NaN,10.404,3.5,37.2,23 / 26,323538,2020-03-20 15:48:27:254
8.643068,-13.747506,-6.995857,8.0,49.83499,24.05296,333.0,NaN,10.404,3.5,37.2,22 / 26,324039,2020-03-20 15:48:27:755
7.800309,7.910443,-5.324704,8.0,49.83499,24.05296,333.0,NaN,10.404,3.5,37.2,22 / 26,324538,2020-03-20 15:48:28:254
-7.422025,6.976704,4.304775,8.0,49.83499,24.05296,333.0,NaN,10.404,3.5,37.2,22 / 26,325039,2020-03-20 15:48:28:755
10.376471,-2.839523,-3.849876,8.0,49.83499,24.05296,333.0,NaN,10.404,3.5,37.2,22 / 26,325538,2020-03-20 15:48:29:254
18.86152,31.182083,16.582241,8.0,49.83499,24.05296,333.0,NaN,10.404,3.5,37.2,22 / 26,326038,2020-03-20 15:48:29:754
0.943315,13.40753,4.003105,8.0,49.83499,24.05296,333.0,NaN,10.404,3.5,37.2,22 / 26,326539,2020-03-20 15:48:30:255
10.496181,-14.413095,-3.414132,8.0,49.83499,24.05296,333.0,NaN,10.404,3.5,37.2,23 / 26,327038,2020-03-20 15:48:30:754
-0.009577,10.127473,11.482592,8.0,49.83499,24.05296,333.0,NaN,10.404,3.5,37.2,23 / 26,327538,2020-03-20 15:48:31:254
20.87744,34.66804,7.235278,8.0,49.83499,24.05296,333.0,NaN,10.404,3.5,37.2,22 / 26,328039,2020-03-20 15:48:31:755
17.990032,2.322376,0.407014,8.0,49.83499,24.05296,333.0,NaN,10.404,3.5,37.2,22 / 26,328538,2020-03-20 15:48:32:254
15.873557,20.116083,-10.58716,8.0,49.83499,24.05296,333.0,NaN,10.404,3.5,37.2,23 / 26,329039,2020-03-20 15:48:32:755
-4.194641,10.314221,1.235408,8.0,49.83499,24.05296,333.0,NaN,10.404,3.5,37.2,23 / 26,329538,2020-03-20 15:48:33:254
2.226608,-15.753847,-2.403778,8.0,49.83499,24.05296,333.0,NaN,10.404,3.5,37.2,23 / 26,330038,2020-03-20 15:48:33:754
9.653421,18.574217,5.257667,8.0,49.83499,24.05296,333.0,NaN,10.404,3.5,37.2,23 / 26,330539,2020-03-20 15:48:34:255
17.223886,30.875626,4.218584,8.0,49.83499,24.05296,333.0,NaN,10.404,3.5,37.2,23 / 26,331038,2020-03-20 15:48:34:754
3.849877,-6.282385,-1.742979,8.0,49.83499,24.05296,333.0,NaN,10.404,3.5,37.2,23 / 26,331539,2020-03-20 15:48:35:255
-1.13964,10.184934,5.588067,8.0,49.83499,24.05296,333.0,NaN,10.404,3.5,37.2,23 / 26,332039,2020-03-20 15:48:35:755
-7.096413,6.426038,0.636858,8.0,49.83499,24.05296,333.0,NaN,10.404,3.5,37.2,23 / 26,332538,2020-03-20 15:48:36:254
-2.293645,-13.752295,-5.865794,8.0,49.83499,24.05296,333.0,NaN,10.404,3.5,37.2,23 / 26,333039,2020-03-20 15:48:36:755
6.531382,26.939558,1.656788,8.0,49.83499,24.05296,333.0,NaN,10.404,3.5,37.2,23 / 26,333538,2020-03-20 15:48:37:254
6.651093,21.361067,-0.047884,8.0,49.83499,24.05296,333.0,NaN,10.404,3.5,37.2,23 / 26,334039,2020-03-20 15:48:37:755
2.844312,-20.920534,0.727837,8.0,49.83499,24.05296,333.0,NaN,10.404,3.5,37.2,23 / 26,334539,2020-03-20 15:48:38:255
3.567361,8.714894,10.965444,8.0,49.83499,24.05296,333.0,NaN,10.404,3.5,37.2,22 / 26,335038,2020-03-20 15:48:38:754
16.333244,36.185963,-1.063026,8.0,49.83499,24.05296,333.0,NaN,10.404,3.5,37.2,22 / 26,335538,2020-03-20 15:48:39:254
6.215348,-7.848193,-3.706224,8.0,49.835644,24.054737,331.0,NaN,12.348,2.0,68.9,23 / 26,336038,2020-03-20 15:48:39:754
19.752165,13.498509,-15.519216,8.0,49.835644,24.054737,331.0,NaN,12.348,2.0,68.9,23 / 26,336539,2020-03-20 15:48:40:255
-6.560112,5.085284,0.019154,8.0,49.835644,24.054737,331.0,NaN,12.348,2.0,68.9,22 / 26,337039,2020-03-20 15:48:40:755
-2.442086,-15.097836,-2.413355,8.0,49.835644,24.054737,331.0,NaN,12.348,2.0,68.9,22 / 26,337538,2020-03-20 15:48:41:254
18.842367,36.28173,0.785298,8.0,49.835644,24.054737,331.0,NaN,12.348,2.0,68.9,22 / 26,338038,2020-03-20 15:48:41:754
-1.249773,16.500837,-0.565032,8.0,49.835644,24.054737,331.0,NaN,12.348,2.0,68.9,22 / 26,338539,2020-03-20 15:48:42:255
1.11091,-9.409213,-4.481945,8.0,49.835644,24.054737,331.0,NaN,12.348,2.0,68.9,23 / 26,339038,2020-03-20 15:48:42:754
6.138734,13.239936,0.861913,8.0,49.835644,24.054737,331.0,NaN,12.348,2.0,68.9,23 / 26,339538,2020-03-20 15:48:43:254
24.966736,33.13575,-16.46253,8.0,49.835644,24.054737,331.0,NaN,12.348,2.0,68.9,23 / 26,340039,2020-03-20 15:48:43:755
5.334282,-15.974113,4.960786,8.0,49.835644,24.054737,331.0,NaN,12.348,2.0,68.9,23 / 26,340538,2020-03-20 15:48:44:254
15.950171,13.192051,1.000776,8.0,49.835644,24.054737,331.0,NaN,12.348,2.0,68.9,22 / 27,341039,2020-03-20 15:48:44:755
-4.821922,9.452309,1.254562,8.0,49.835644,24.054737,331.0,NaN,12.348,2.0,68.9,22 / 27,341538,2020-03-20 15:48:45:254
7.747637,-16.136919,0.373495,8.0,49.835644,24.054737,331.0,NaN,12.348,2.0,68.9,24 / 27,342038,2020-03-20 15:48:45:754
6.177041,18.095375,2.844312,8.0,49.835644,24.054737,331.0,NaN,12.348,2.0,68.9,24 / 27,342539,2020-03-20 15:48:46:255
15.543158,22.878992,3.854665,8.0,49.835644,24.054737,331.0,NaN,12.348,2.0,68.9,23 / 27,343038,2020-03-20 15:48:46:754
2.882619,-0.694318,-6.17704,8.0,49.835644,24.054737,331.0,NaN,12.348,2.0,68.9,23 / 27,343538,2020-03-20 15:48:47:254
-1.130063,7.891289,4.606444,8.0,49.835644,24.054737,331.0,NaN,12.348,2.0,68.9,23 / 26,344039,2020-03-20 15:48:47:755
-2.825158,12.306197,-4.410119,8.0,49.835644,24.054737,331.0,NaN,12.348,2.0,68.9,23 / 26,344538,2020-03-20 15:48:48:254
2.844312,-14.221559,-1.11091,8.0,49.835644,24.054737,331.0,NaN,12.348,2.0,68.9,23 / 26,345038,2020-03-20 15:48:48:754
6.0286,11.774684,5.358224,8.0,49.835644,24.054737,331.0,NaN,12.348,2.0,68.9,23 / 26,345538,2020-03-20 15:48:49:254
12.564771,23.90371,15.140931,8.0,49.835644,24.054737,331.0,NaN,12.348,2.0,68.9,23 / 27,346038,2020-03-20 15:48:49:754
1.771709,-1.814805,-2.15957,8.0,49.835644,24.054737,331.0,NaN,12.348,2.0,68.9,23 / 27,346538,2020-03-20 15:48:50:254
-1.474828,6.579266,3.892972,8.0,49.835644,24.054737,331.0,NaN,12.348,2.0,68.9,23 / 27,347039,2020-03-20 15:48:50:755
9.955091,10.060435,-6.153098,8.0,49.835644,24.054737,331.0,NaN,12.348,2.0,68.9,23 / 27,347538,2020-03-20 15:48:51:254
14.00608,14.829685,-2.54743,8.0,49.835644,24.054737,331.0,NaN,12.348,2.0,68.9,23 / 27,348039,2020-03-20 15:48:51:755
5.966351,12.832921,1.240197,8.0,49.835644,24.054737,331.0,NaN,12.348,2.0,68.9,23 / 27,348538,2020-03-20 15:48:52:254
11.880029,25.756823,19.033903,8.0,49.835644,24.054737,331.0,NaN,12.348,2.0,68.9,23 / 27,349038,2020-03-20 15:48:52:754
3.41892,-4.491522,-2.576161,8.0,49.835644,24.054737,331.0,NaN,12.348,2.0,68.9,23 / 27,349539,2020-03-20 15:48:53:255
-2.293645,4.505888,-2.207454,8.0,49.835644,24.054737,331.0,NaN,12.348,2.0,68.9,23 / 27,350038,2020-03-20 15:48:53:754
8.365341,9.605537,-1.235408,8.0,49.835644,24.054737,331.0,NaN,12.348,2.0,68.9,23 / 27,350539,2020-03-20 15:48:54:255
24.363396,22.041021,2.408567,8.0,49.835644,24.054737,331.0,NaN,12.348,2.0,68.9,21 / 26,351038,2020-03-20 15:48:54:754
-4.960786,4.458004,-0.368707,8.0,49.835644,24.054737,331.0,NaN,12.348,2.0,68.9,21 / 26,351539,2020-03-20 15:48:55:255
2.75812,-12.459426,-4.932055,8.0,49.835644,24.054737,331.0,NaN,12.348,2.0,68.9,21 / 25,352038,2020-03-20 15:48:55:754
1.426944,-1.929727,-1.398214,8.0,49.835644,24.054737,331.0,NaN,12.348,2.0,68.9,21 / 25,352539,2020-03-20 15:48:56:255
-1.082179,7.388507,1.56102,8.0,49.835644,24.054737,331.0,NaN,12.348,2.0,68.9,21 / 25,353039,2020-03-20 15:48:56:755
17.070658,12.957419,0.507571,8.0,49.835644,24.054737,331.0,NaN,12.348,2.0,68.9,21 / 25,353538,2020-03-20 15:48:57:254
8.576031,11.535264,-4.903325,8.0,49.835644,24.054737,331.0,NaN,12.348,2.0,68.9,23 / 26,354039,2020-03-20 15:48:57:755
-1.015141,9.68694,1.833959,8.0,49.835644,24.054737,331.0,NaN,12.348,2.0,68.9,23 / 26,354538,2020-03-20 15:48:58:254
1.575385,-9.758766,0.004788,8.0,49.835644,24.054737,331.0,NaN,12.348,2.0,68.9,22 / 26,355040,2020-03-20 15:48:58:756
6.033388,26.714502,3.62961,8.0,49.835644,24.054737,331.0,NaN,12.348,2.0,68.9,22 / 26,355539,2020-03-20 15:48:59:255
2.509123,18.05707,0.814029,8.0,49.835644,24.054737,331.0,NaN,12.348,2.0,68.9,23 / 26,356039,2020-03-20 15:48:59:755
5.181053,-9.945514,-3.864241,8.0,49.835644,24.054737,331.0,NaN,12.348,2.0,68.9,23 / 26,356539,2020-03-20 15:49:00:255
4.175488,2.853889,2.480393,8.0,49.835644,24.054737,331.0,NaN,12.348,2.0,68.9,23 / 26,357038,2020-03-20 15:49:00:754
-5.118803,7.321469,2.116475,8.0,49.835644,24.054737,331.0,NaN,12.348,2.0,68.9,23 / 26,357538,2020-03-20 15:49:01:254
14.748282,-0.713472,-0.761356,8.0,49.835644,24.054737,331.0,NaN,12.348,2.0,68.9,23 / 26,358039,2020-03-20 15:49:01:755
21.131224,27.547686,9.706094,8.0,49.835644,24.054737,331.0,NaN,12.348,2.0,68.9,23 / 26,358539,2020-03-20 15:49:02:255
-3.643975,10.960655,-0.742202,8.0,49.835644,24.054737,331.0,NaN,12.348,2.0,68.9,23 / 26,359038,2020-03-20 15:49:02:754
8.240842,-11.650186,-3.744531,8.0,49.835644,24.054737,331.0,NaN,12.348,2.0,68.9,23 / 26,359539,2020-03-20 15:49:03:255
6.943185,12.368446,3.078944,8.0,49.835644,24.054737,331.0,NaN,12.348,2.0,68.9,22 / 26,360038,2020-03-20 15:49:03:754
18.406622,22.261288,14.504074,8.0,49.835644,24.054737,331.0,NaN,12.348,2.0,68.9,22 / 26,360538,2020-03-20 15:49:04:254
6.23929,-0.402226,-13.01488,8.0,49.835644,24.054737,331.0,NaN,12.348,2.0,68.9,21 / 26,361038,2020-03-20 15:49:04:754
13.517663,25.230097,9.974244,8.0,49.835644,24.054737,331.0,NaN,12.348,2.0,68.9,21 / 26,361539,2020-03-20 15:49:05:255
-3.801992,12.464214,2.164359,8.0,49.835644,24.054737,331.0,NaN,12.348,2.0,68.9,21 / 26,362038,2020-03-20 15:49:05:754
3.227384,-9.212888,-5.358223,8.0,49.835644,24.054737,331.0,NaN,12.348,2.0,68.9,21 / 26,362538,2020-03-20 15:49:06:254
1.369483,10.34774,1.134852,8.0,49.835644,24.054737,331.0,NaN,12.348,2.0,68.9,19 / 24,363038,2020-03-20 15:49:06:754
10.371682,23.669079,10.419566,8.0,49.835644,24.054737,331.0,NaN,12.348,2.0,68.9,19 / 24,363538,2020-03-20 15:49:07:254
1.891419,-3.53863,-5.046977,8.0,49.835644,24.054737,331.0,NaN,12.348,2.0,68.9,19 / 26,364038,2020-03-20 15:49:07:754
-2.571372,3.926491,4.434062,8.0,49.835644,24.054737,331.0,NaN,12.348,2.0,68.9,19 / 26,364538,2020-03-20 15:49:08:254
9.844957,6.21056,-11.238382,8.0,49.835644,24.054737,331.0,NaN,12.348,2.0,68.9,19 / 26,365039,2020-03-20 15:49:08:755
6.512229,-10.160992,-11.372458,8.0,49.835644,24.054737,331.0,NaN,12.348,2.0,68.9,19 / 26,365539,2020-03-20 15:49:09:255
3.102886,5.822699,11.587936,8.0,49.835644,24.054737,331.0,NaN,12.348,2.0,68.9,21 / 24,366038,2020-03-20 15:49:09:754
16.917427,25.661055,4.86023,8.0,49.835644,24.054737,331.0,NaN,12.348,2.0,68.9,21 / 24,366538,2020-03-20 15:49:10:254
2.020706,-3.189077,-1.94888,8.0,49.835644,24.054737,331.0,NaN,12.348,2.0,68.9,22 / 25,367038,2020-03-20 15:49:10:754
-4.141969,5.54976,3.744532,8.0,49.835644,24.054737,331.0,NaN,12.348,2.0,68.9,22 / 25,367538,2020-03-20 15:49:11:254
13.235147,4.64954,-0.009577,8.0,49.835644,24.054737,331.0,NaN,12.348,2.0,68.9,22 / 25,368039,2020-03-20 15:49:11:755
25.79034,22.70182,6.584055,8.0,49.835644,24.054737,331.0,NaN,12.348,2.0,68.9,22 / 25,368538,2020-03-20 15:49:12:254
-4.668693,10.970232,8.475474,8.0,49.835644,24.054737,331.0,NaN,12.348,2.0,68.9,22 / 25,369038,2020-03-20 15:49:12:754
4.620809,12.789825,-8.121132,8.0,49.835644,24.054737,331.0,NaN,12.348,2.0,68.9,22 / 25,369539,2020-03-20 15:49:13:255
11.200075,12.354081,-2.719813,8.0,49.835644,24.054737,331.0,NaN,12.348,2.0,68.9,22 / 26,370039,2020-03-20 15:49:13:755
-3.768473,7.201759,0.416591,8.0,49.835644,24.054737,331.0,NaN,12.348,2.0,68.9,22 / 26,370538,2020-03-20 15:49:14:254
0.703895,-8.858546,-10.840945,8.0,49.835644,24.054737,331.0,NaN,12.348,2.0,68.9,23 / 26,371038,2020-03-20 15:49:14:754
20.326773,30.755915,22.07454,8.0,49.835644,24.054737,331.0,NaN,12.348,2.0,68.9,23 / 26,371538,2020-03-20 15:49:15:254
0.866701,16.582241,12.038046,8.0,49.835644,24.054737,331.0,NaN,12.348,2.0,68.9,22 / 26,372039,2020-03-20 15:49:15:755
0.914585,-10.328587,3.936068,8.0,49.835644,24.054737,331.0,NaN,12.348,2.0,68.9,22 / 26,372539,2020-03-20 15:49:16:255
-2.734178,9.639056,5.171476,8.0,49.835644,24.054737,331.0,NaN,12.348,2.0,68.9,21 / 25,373039,2020-03-20 15:49:16:755
7.508217,21.887793,24.842237,8.0,49.835644,24.054737,331.0,NaN,12.348,2.0,68.9,21 / 25,373538,2020-03-20 15:49:17:254
11.908759,-0.723049,7.742849,8.0,49.835644,24.054737,331.0,NaN,12.348,2.0,68.9,20 / 25,374039,2020-03-20 15:49:17:755
12.612655,16.730682,8.025364,8.0,49.835644,24.054737,331.0,NaN,12.348,2.0,68.9,20 / 25,374538,2020-03-20 15:49:18:254
-5.631162,7.369353,-0.584185,8.0,49.835644,24.054737,331.0,NaN,12.348,2.0,68.9,21 / 26,375038,2020-03-20 15:49:18:754
5.406108,-8.954314,0.416591,8.0,49.835644,24.054737,331.0,NaN,12.348,2.0,68.9,21 / 26,375539,2020-03-20 15:49:19:255
5.248091,16.620548,3.107674,8.0,49.835644,24.054737,331.0,NaN,12.348,2.0,68.9,20 / 26,376039,2020-03-20 15:49:19:755
7.651869,21.74414,-2.676717,8.0,49.835644,24.054737,331.0,NaN,12.348,2.0,68.9,20 / 26,376538,2020-03-20 15:49:20:254
2.063802,-3.888183,0.35913,8.0,49.835644,24.054737,331.0,NaN,12.348,2.0,68.9,22 / 26,377038,2020-03-20 15:49:20:754
-2.226607,6.220136,2.255338,8.0,49.835644,24.054737,331.0,NaN,12.348,2.0,68.9,22 / 26,377538,2020-03-20 15:49:21:254
12.071565,21.95004,25.565287,8.0,49.835644,24.054737,331.0,NaN,12.348,2.0,68.9,22 / 26,378038,2020-03-20 15:49:21:754
5.492299,4.424485,0.517148,8.0,49.835644,24.054737,331.0,NaN,12.348,2.0,68.9,22 / 26,378539,2020-03-20 15:49:22:255
-2.355894,5.45878,-2.130839,8.0,49.835644,24.054737,331.0,NaN,12.348,2.0,68.9,23 / 26,379039,2020-03-20 15:49:22:755
0.205901,16.936583,5.726931,8.0,49.835644,24.054737,331.0,NaN,12.348,2.0,68.9,23 / 26,379538,2020-03-20 15:49:23:254
5.621586,-9.169792,-3.500323,8.0,49.835644,24.054737,331.0,NaN,12.348,2.0,68.9,23 / 26,380038,2020-03-20 15:49:23:754
0.967258,7.316681,6.722919,8.0,49.835644,24.054737,331.0,NaN,12.348,2.0,68.9,23 / 26,380538,2020-03-20 15:49:24:254
23.57331,27.121517,7.072472,8.0,49.835644,24.054737,331.0,NaN,12.348,2.0,68.9,23 / 26,381038,2020-03-20 15:49:24:754
2.264915,0.80924,-7.85777,8.0,49.835644,24.054737,331.0,NaN,12.348,2.0,68.9,23 / 26,381539,2020-03-20 15:49:25:255
0.612916,8.202535,5.837064,8.0,49.835644,24.054737,331.0,NaN,12.348,2.0,68.9,23 / 26,382039,2020-03-20 15:49:25:755
6.282386,6.694188,-5.406107,8.0,49.835644,24.054737,331.0,NaN,12.348,2.0,68.9,23 / 26,382538,2020-03-20 15:49:26:254
18.133684,19.077,15.35641,8.0,49.835644,24.054737,331.0,NaN,12.348,2.0,68.9,22 / 26,383038,2020-03-20 15:49:26:754
0.679953,10.386047,-0.632069,8.0,49.835644,24.054737,331.0,NaN,12.348,2.0,68.9,22 / 26,383539,2020-03-20 15:49:27:255
18.751389,23.42008,21.528662,8.0,49.835293,24.05653,333.0,NaN,8.82,2.5,111.3,22 / 25,384039,2020-03-20 15:49:27:755
12.109872,4.596867,3.682282,8.0,49.835293,24.05653,333.0,NaN,8.82,2.5,111.3,22 / 25,384538,2020-03-20 15:49:28:254
-1.532289,8.48984,5.482722,8.0,49.835293,24.05653,333.0,NaN,8.82,2.5,111.3,22 / 25,385038,2020-03-20 15:49:28:754
17.84159,6.995857,2.456451,8.0,49.835293,24.05653,333.0,NaN,8.82,2.5,111.3,22 / 25,385538,2020-03-20 15:49:29:254
14.518439,15.729905,11.362882,8.0,49.835293,24.05653,333.0,NaN,8.82,2.5,111.3,23 / 25,386039,2020-03-20 15:49:29:755
-2.049437,8.173805,-1.651999,8.0,49.835293,24.05653,333.0,NaN,8.82,2.5,111.3,23 / 25,386539,2020-03-20 15:49:30:255
0.617704,-14.302961,2.03986,8.0,49.835293,24.05653,333.0,NaN,8.82,2.5,111.3,23 / 26,387038,2020-03-20 15:49:30:754
8.078037,16.610971,13.728353,8.0,49.835293,24.05653,333.0,NaN,8.82,2.5,111.3,23 / 26,387538,2020-03-20 15:49:31:254
10.553641,25.052929,11.808203,8.0,49.835293,24.05653,333.0,NaN,8.82,2.5,111.3,23 / 26,388038,2020-03-20 15:49:31:754
16.318878,4.07972,1.393425,8.0,49.835293,24.05653,333.0,NaN,8.82,2.5,111.3,23 / 26,388538,2020-03-20 15:49:32:254
21.389797,24.133553,18.363527,8.0,49.835293,24.05653,333.0,NaN,8.82,2.5,111.3,23 / 26,389039,2020-03-20 15:49:32:755
-4.012682,8.935161,-1.61848,8.0,49.835293,24.05653,333.0,NaN,8.82,2.5,111.3,23 / 26,389539,2020-03-20 15:49:33:255
5.386954,-14.001291,1.302446,8.0,49.835293,24.05653,333.0,NaN,8.82,2.5,111.3,24 / 26,390038,2020-03-20 15:49:33:754
3.696648,18.828003,10.769119,8.0,49.835293,24.05653,333.0,NaN,8.82,2.5,111.3,24 / 26,390538,2020-03-20 15:49:34:254
11.09473,30.262709,-1.556231,8.0,49.835293,24.05653,333.0,NaN,8.82,2.5,111.3,24 / 26,391038,2020-03-20 15:49:34:754
4.060566,-4.141969,-3.356671,8.0,49.835293,24.05653,333.0,NaN,8.82,2.5,111.3,24 / 26,391539,2020-03-20 15:49:35:255
-4.252102,5.353435,0.536301,8.0,49.835293,24.05653,333.0,NaN,8.82,2.5,111.3,24 / 26,392038,2020-03-20 15:49:35:754
4.941633,14.915876,-4.563348,8.0,49.835293,24.05653,333.0,NaN,8.82,2.5,111.3,24 / 26,392538,2020-03-20 15:49:36:254
8.432379,-10.515334,-0.220267,8.0,49.835293,24.05653,333.0,NaN,8.82,2.5,111.3,23 / 26,393039,2020-03-20 15:49:36:755
2.1883,12.344504,4.687847,8.0,49.835293,24.05653,333.0,NaN,8.82,2.5,111.3,23 / 26,393538,2020-03-20 15:49:37:254
4.477157,26.278757,14.42746,8.0,49.835293,24.05653,333.0,NaN,8.82,2.5,111.3,24 / 26,394038,2020-03-20 15:49:37:754
1.766921,-2.796427,-1.68073,8.0,49.835293,24.05653,333.0,NaN,8.82,2.5,111.3,24 / 26,394539,2020-03-20 15:49:38:255
-5.932832,3.873819,0.751779,8.0,49.835293,24.05653,333.0,NaN,8.82,2.5,111.3,24 / 26,395038,2020-03-20 15:49:38:754
12.914324,15.131354,10.213664,8.0,49.835293,24.05653,333.0,NaN,8.82,2.5,111.3,24 / 26,395539,2020-03-20 15:49:39:255
11.334151,15.20797,4.022259,8.0,49.835293,24.05653,333.0,NaN,8.82,2.5,111.3,23 / 26,396039,2020-03-20 15:49:39:755
2.394202,9.730036,3.294422,8.0,49.835293,24.05653,333.0,NaN,8.82,2.5,111.3,23 / 26,396538,2020-03-20 15:49:40:254
22.060175,33.74867,2.375048,8.0,49.835293,24.05653,333.0,NaN,8.82,2.5,111.3,23 / 26,397039,2020-03-20 15:49:40:755
4.074931,-3.093309,-4.386177,8.0,49.835293,24.05653,333.0,NaN,8.82,2.5,111.3,23 / 26,397538,2020-03-20 15:49:41:254
-3.821146,8.848969,3.883395,8.0,49.835293,24.05653,333.0,NaN,8.82,2.5,111.3,23 / 26,398039,2020-03-20 15:49:41:755
16.701952,-0.277727,5.516241,8.0,49.835293,24.05653,333.0,NaN,8.82,2.5,111.3,23 / 26,398538,2020-03-20 15:49:42:254
23.75527,23.348255,13.642161,8.0,49.835293,24.05653,333.0,NaN,8.82,2.5,111.3,23 / 26,399038,2020-03-20 15:49:42:754
-2.504335,11.133038,0.833182,8.0,49.835293,24.05653,333.0,NaN,8.82,2.5,111.3,23 / 26,399539,2020-03-20 15:49:43:255
4.419697,-16.342821,-0.766144,8.0,49.835293,24.05653,333.0,NaN,8.82,2.5,111.3,24 / 26,400039,2020-03-20 15:49:43:755
4.874595,-1.005565,-3.280056,8.0,49.835293,24.05653,333.0,NaN,8.82,2.5,111.3,24 / 26,400538,2020-03-20 15:49:44:254
-3.39019,5.726931,-2.753332,8.0,49.835293,24.05653,333.0,NaN,8.82,2.5,111.3,24 / 26,401038,2020-03-20 15:49:44:754
18.181568,5.923255,5.133168,8.0,49.835293,24.05653,333.0,NaN,8.82,2.5,111.3,24 / 26,401539,2020-03-20 15:49:45:255
15.44739,18.784906,0.770933,8.0,49.835293,24.05653,333.0,NaN,8.82,2.5,111.3,23 / 26,402039,2020-03-20 15:49:45:755
-6.315904,6.248867,-4.089296,8.0,49.835293,24.05653,333.0,NaN,8.82,2.5,111.3,23 / 26,402538,2020-03-20 15:49:46:254
3.428497,-11.832145,0.138864,8.0,49.835293,24.05653,333.0,NaN,8.82,2.5,111.3,21 / 26,403038,2020-03-20 15:49:46:754
0.684742,16.994043,4.041412,8.0,49.835293,24.05653,333.0,NaN,8.82,2.5,111.3,21 / 26,403538,2020-03-20 15:49:47:254
2.681506,17.578228,-1.039083,8.0,49.835293,24.05653,333.0,NaN,8.82,2.5,111.3,22 / 26,404039,2020-03-20 15:49:47:755
5.81791,-8.853758,-7.292738,8.0,49.835293,24.05653,333.0,NaN,8.82,2.5,111.3,22 / 26,404538,2020-03-20 15:49:48:254
1.781286,4.970363,-6.153098,8.0,49.835293,24.05653,333.0,NaN,8.82,2.5,111.3,21 / 26,405038,2020-03-20 15:49:48:754
-5.114014,3.596091,0.244209,8.0,49.835293,24.05653,333.0,NaN,8.82,2.5,111.3,21 / 26,405538,2020-03-20 15:49:49:254
16.01721,2.231396,5.621586,8.0,49.835293,24.05653,333.0,NaN,8.82,2.5,111.3,21 / 25,406038,2020-03-20 15:49:49:754
16.917427,20.427328,17.51598,8.0,49.835293,24.05653,333.0,NaN,8.82,2.5,111.3,21 / 25,406539,2020-03-20 15:49:50:255
-1.288081,11.343728,-1.431733,8.0,49.835293,24.05653,333.0,NaN,8.82,2.5,111.3,21 / 25,407039,2020-03-20 15:49:50:755
6.464345,-12.694057,-0.263362,8.0,49.835293,24.05653,333.0,NaN,8.82,2.5,111.3,21 / 25,407538,2020-03-20 15:49:51:254
8.628703,13.230358,0.067038,8.0,49.835293,24.05653,333.0,NaN,8.82,2.5,111.3,20 / 25,408038,2020-03-20 15:49:51:754
17.587805,30.028078,8.178593,8.0,49.835293,24.05653,333.0,NaN,8.82,2.5,111.3,20 / 25,408538,2020-03-20 15:49:52:254
6.703765,-6.698976,-1.862689,8.0,49.835293,24.05653,333.0,NaN,8.82,2.5,111.3,22 / 25,409038,2020-03-20 15:49:52:754
19.972431,24.20538,2.863465,8.0,49.835293,24.05653,333.0,NaN,8.82,2.5,111.3,22 / 25,409538,2020-03-20 15:49:53:254
1.067814,12.258312,2.920926,8.0,49.835293,24.05653,333.0,NaN,8.82,2.5,111.3,21 / 26,410039,2020-03-20 15:49:53:755
5.784392,-13.632585,-3.591303,8.0,49.835293,24.05653,333.0,NaN,8.82,2.5,111.3,21 / 26,410538,2020-03-20 15:49:54:254
3.438074,15.164873,0.368707,8.0,49.835293,24.05653,333.0,NaN,8.82,2.5,111.3,21 / 26,411039,2020-03-20 15:49:54:755
10.773908,25.129541,7.752425,8.0,49.835293,24.05653,333.0,NaN,8.82,2.5,111.3,21 / 26,411539,2020-03-20 15:49:55:255
2.772486,-4.390966,-4.817134,8.0,49.835293,24.05653,333.0,NaN,8.82,2.5,111.3,21 / 26,412038,2020-03-20 15:49:55:754
-3.323152,9.23683,7.211336,8.0,49.835293,24.05653,333.0,NaN,8.82,2.5,111.3,21 / 26,412538,2020-03-20 15:49:56:254
-2.011129,8.633492,-1.335964,8.0,49.835293,24.05653,333.0,NaN,8.82,2.5,111.3,21 / 26,413038,2020-03-20 15:49:56:754
9.160215,-10.443508,-0.737414,8.0,49.835293,24.05653,333.0,NaN,8.82,2.5,111.3,21 / 26,413539,2020-03-20 15:49:57:255
-2.628833,13.259089,1.082179,8.0,49.835293,24.05653,333.0,NaN,8.82,2.5,111.3,20 / 26,414039,2020-03-20 15:49:57:755
14.944607,26.077644,13.230358,8.0,49.835293,24.05653,333.0,NaN,8.82,2.5,111.3,20 / 26,414538,2020-03-20 15:49:58:254
2.772486,-3.639186,-1.16837,8.0,49.835293,24.05653,333.0,NaN,8.82,2.5,111.3,21 / 26,415038,2020-03-20 15:49:58:754
-5.12838,6.818687,3.667917,8.0,49.835293,24.05653,333.0,NaN,8.82,2.5,111.3,21 / 26,415539,2020-03-20 15:49:59:255
14.489709,17.104177,-5.171476,8.0,49.835293,24.05653,333.0,NaN,8.82,2.5,111.3,22 / 26,416038,2020-03-20 15:49:59:754
11.118672,11.511322,4.376601,8.0,49.835293,24.05653,333.0,NaN,8.82,2.5,111.3,22 / 26,416538,2020-03-20 15:50:00:254
-6.603208,6.244078,-2.365471,8.0,49.835293,24.05653,333.0,NaN,8.82,2.5,111.3,22 / 26,417038,2020-03-20 15:50:00:754
3.96001,20.451271,2.58095,8.0,49.835293,24.05653,333.0,NaN,8.82,2.5,111.3,22 / 26,417539,2020-03-20 15:50:01:255
3.86903,-7.350199,-0.531513,8.0,49.835293,24.05653,333.0,NaN,8.82,2.5,111.3,21 / 26,418038,2020-03-20 15:50:01:754
-0.488417,9.088389,2.336741,8.0,49.835293,24.05653,333.0,NaN,8.82,2.5,111.3,21 / 26,418538,2020-03-20 15:50:02:254
17.827227,31.038431,10.160992,8.0,49.835293,24.05653,333.0,NaN,8.82,2.5,111.3,23 / 26,419038,2020-03-20 15:50:02:754
-0.11971,1.398214,-3.552995,8.0,49.835293,24.05653,333.0,NaN,8.82,2.5,111.3,23 / 26,419539,2020-03-20 15:50:03:255
-3.864241,5.985504,1.072602,8.0,49.835293,24.05653,333.0,NaN,8.82,2.5,111.3,23 / 26,420039,2020-03-20 15:50:03:755
14.930242,10.979809,-3.112462,8.0,49.835293,24.05653,333.0,NaN,8.82,2.5,111.3,23 / 26,420538,2020-03-20 15:50:04:254
14.973337,19.776106,10.979809,8.0,49.835293,24.05653,333.0,NaN,8.82,2.5,111.3,23 / 26,421038,2020-03-20 15:50:04:754
-2.537854,10.998962,10.740389,8.0,49.835293,24.05653,333.0,NaN,8.82,2.5,111.3,23 / 26,421538,2020-03-20 15:50:05:254
-0.756568,18.77533,6.818687,8.0,49.835293,24.05653,333.0,NaN,8.82,2.5,111.3,24 / 26,422039,2020-03-20 15:50:05:755
1.977611,-6.019023,-2.030283,8.0,49.835293,24.05653,333.0,NaN,8.82,2.5,111.3,24 / 26,422538,2020-03-20 15:50:06:254
-2.126051,8.968679,4.812346,8.0,49.835293,24.05653,333.0,NaN,8.82,2.5,111.3,24 / 26,423038,2020-03-20 15:50:06:754
9.188946,27.064056,-1.177947,8.0,49.835293,24.05653,333.0,NaN,8.82,2.5,111.3,24 / 26,423538,2020-03-20 15:50:07:254
1.963245,-1.561019,2.298434,8.0,49.835293,24.05653,333.0,NaN,8.82,2.5,111.3,24 / 26,424039,2020-03-20 15:50:07:755
-4.151545,4.673482,0.90022,8.0,49.835293,24.05653,333.0,NaN,8.82,2.5,111.3,24 / 26,424539,2020-03-20 15:50:08:255
7.019799,-5.018246,0.833182,8.0,49.835293,24.05653,333.0,NaN,8.82,2.5,111.3,24 / 26,425038,2020-03-20 15:50:08:754
-0.387861,26.312277,2.873042,8.0,49.835293,24.05653,333.0,NaN,8.82,2.5,111.3,24 / 26,425538,2020-03-20 15:50:09:254
-4.22816,5.60722,2.384625,8.0,49.835293,24.05653,333.0,NaN,8.82,2.5,111.3,21 / 25,426038,2020-03-20 15:50:09:754
6.823475,9.351752,3.026271,8.0,49.835293,24.05653,333.0,NaN,8.82,2.5,111.3,21 / 25,426539,2020-03-20 15:50:10:255
11.803414,16.912642,2.930503,8.0,49.835293,24.05653,333.0,NaN,8.82,2.5,111.3,22 / 25,427038,2020-03-20 15:50:10:754
-6.50744,5.583278,-0.871489,8.0,49.835293,24.05653,333.0,NaN,8.82,2.5,111.3,22 / 25,427538,2020-03-20 15:50:11:254
8.461109,-5.884948,5.894525,8.0,49.835293,24.05653,333.0,NaN,8.82,2.5,111.3,23 / 26,428038,2020-03-20 15:50:11:754
6.785168,30.41594,18.095375,8.0,49.835293,24.05653,333.0,NaN,8.82,2.5,111.3,23 / 26,428539,2020-03-20 15:50:12:255
-6.23929,12.26789,0.756568,8.0,49.835293,24.05653,333.0,NaN,8.82,2.5,111.3,22 / 26,429039,2020-03-20 15:50:12:755
2.906561,-11.48738,-5.3678,8.0,49.835293,24.05653,333.0,NaN,8.82,2.5,111.3,22 / 26,429538,2020-03-20 15:50:13:254
2.547431,9.892841,4.089296,8.0,49.835293,24.05653,333.0,NaN,8.82,2.5,111.3,23 / 26,430038,2020-03-20 15:50:13:754
0.038307,12.200851,4.185065,8.0,49.835293,24.05653,333.0,NaN,8.82,2.5,111.3,23 / 26,430538,2020-03-20 15:50:14:254
0.225055,-10.70687,-16.634912,8.0,49.835293,24.05653,333.0,NaN,8.82,2.5,111.3,23 / 26,431038,2020-03-20 15:50:14:754
4.625598,28.692114,8.901642,8.0,49.835293,24.05653,333.0,NaN,8.82,2.5,111.3,23 / 26,431538,2020-03-20 15:50:15:254
-3.189077,16.701952,6.114791,8.0,49.83503,24.058212,341.0,NaN,8.28,2.0,35.3,24 / 26,432039,2020-03-20 15:50:15:755
5.238514,-7.431602,-3.102885,8.0,49.83503,24.058212,341.0,NaN,8.28,2.0,35.3,24 / 26,432539,2020-03-20 15:50:16:255
-1.273715,7.402872,3.74932,8.0,49.83503,24.058212,341.0,NaN,8.28,2.0,35.3,21 / 26,433038,2020-03-20 15:50:16:754
30.497341,30.784645,9.313444,8.0,49.83503,24.058212,341.0,NaN,8.28,2.0,35.3,21 / 26,433538,2020-03-20 15:50:17:254
4.347871,5.602432,-4.242525,8.0,49.83503,24.058212,341.0,NaN,8.28,2.0,35.3,22 / 25,434038,2020-03-20 15:50:17:754
10.979809,27.207708,13.125013,8.0,49.83503,24.058212,341.0,NaN,8.28,2.0,35.3,22 / 25,434539,2020-03-20 15:50:18:255
1.910573,12.751518,-0.325611,8.0,49.83503,24.058212,341.0,NaN,8.28,2.0,35.3,22 / 25,435039,2020-03-20 15:50:18:755
6.631939,-10.534488,-2.135628,8.0,49.83503,24.058212,341.0,NaN,8.28,2.0,35.3,22 / 25,435538,2020-03-20 15:50:19:254
1.996764,9.959879,3.007117,8.0,49.83503,24.058212,341.0,NaN,8.28,2.0,35.3,23 / 26,436038,2020-03-20 15:50:19:754
13.263878,25.469517,22.280441,8.0,49.83503,24.058212,341.0,NaN,8.28,2.0,35.3,23 / 26,436539,2020-03-20 15:50:20:255
6.277597,0.584185,-4.759673,8.0,49.83503,24.058212,341.0,NaN,8.28,2.0,35.3,22 / 26,437039,2020-03-20 15:50:20:755
-6.344634,7.201759,1.810017,8.0,49.83503,24.058212,341.0,NaN,8.28,2.0,35.3,22 / 26,437538,2020-03-20 15:50:21:254
9.89763,-1.403002,0.656011,8.0,49.83503,24.058212,341.0,NaN,8.28,2.0,35.3,22 / 26,438039,2020-03-20 15:50:21:755
4.43885,-2.030283,-1.316811,8.0,49.83503,24.058212,341.0,NaN,8.28,2.0,35.3,22 / 26,438538,2020-03-20 15:50:22:254
-2.896984,8.475474,9.983821,8.0,49.83503,24.058212,341.0,NaN,8.28,2.0,35.3,21 / 25,439038,2020-03-20 15:50:22:754
2.351106,4.927267,-6.593631,8.0,49.83503,24.058212,341.0,NaN,8.28,2.0,35.3,21 / 25,439539,2020-03-20 15:50:23:255
17.975666,24.22932,14.470555,8.0,49.83503,24.058212,341.0,NaN,8.28,2.0,35.3,17 / 22,440038,2020-03-20 15:50:23:754
9.907207,18.033127,-7.881712,8.0,49.83503,24.058212,341.0,NaN,8.28,2.0,35.3,17 / 22,440538,2020-03-20 15:50:24:254
5.980716,-3.1795,-7.752425,8.0,49.83503,24.058212,341.0,NaN,8.28,2.0,35.3,20 / 23,441038,2020-03-20 15:50:24:754
-5.032612,6.679823,1.958457,8.0,49.83503,24.058212,341.0,NaN,8.28,2.0,35.3,20 / 23,441539,2020-03-20 15:50:25:255
4.237737,7.13951,-8.197746,8.0,49.83503,24.058212,341.0,NaN,8.28,2.0,35.3,20 / 23,442039,2020-03-20 15:50:25:755
8.432379,-14.901511,-1.460463,8.0,49.83503,24.058212,341.0,NaN,8.28,2.0,35.3,20 / 23,442538,2020-03-20 15:50:26:254
5.066131,13.283031,6.224925,8.0,49.83503,24.058212,341.0,NaN,8.28,2.0,35.3,18 / 24,443039,2020-03-20 15:50:26:755
20.867863,30.205248,2.686294,8.0,49.83503,24.058212,341.0,NaN,8.28,2.0,35.3,18 / 24,443539,2020-03-20 15:50:27:255
8.738836,-0.009577,1.776498,8.0,49.83503,24.058212,341.0,NaN,8.28,2.0,35.3,17 / 26,444038,2020-03-20 15:50:27:754
-5.12838,3.806781,-3.074155,8.0,49.83503,24.058212,341.0,NaN,8.28,2.0,35.3,17 / 26,444539,2020-03-20 15:50:28:255
8.394072,-1.340753,-3.653552,8.0,49.83503,24.058212,341.0,NaN,8.28,2.0,35.3,18 / 26,445039,2020-03-20 15:50:28:755
22.409727,29.702465,14.42746,8.0,49.83503,24.058212,341.0,NaN,8.28,2.0,35.3,18 / 26,445538,2020-03-20 15:50:29:254
-3.562572,10.237606,1.086968,8.0,49.83503,24.058212,341.0,NaN,8.28,2.0,35.3,19 / 25,446038,2020-03-20 15:50:29:754
10.170568,-12.272678,-0.852336,8.0,49.83503,24.058212,341.0,NaN,8.28,2.0,35.3,19 / 25,446539,2020-03-20 15:50:30:255
7.723695,4.161122,-2.212242,8.0,49.83503,24.058212,341.0,NaN,8.28,2.0,35.3,16 / 24,447038,2020-03-20 15:50:30:754
-2.949656,6.981492,-4.031835,8.0,49.83503,24.058212,341.0,NaN,8.28,2.0,35.3,16 / 24,447539,2020-03-20 15:50:31:255
6.435614,-8.734048,0.742203,8.0,49.83503,24.058212,341.0,NaN,8.28,2.0,35.3,15 / 26,448038,2020-03-20 15:50:31:754
14.259866,39.188293,30.454247,8.0,49.83503,24.058212,341.0,NaN,8.28,2.0,35.3,15 / 26,448539,2020-03-20 15:50:32:255
1.254562,19.867086,1.781286,8.0,49.83503,24.058212,341.0,NaN,8.28,2.0,35.3,17 / 26,449039,2020-03-20 15:50:32:755
0.110133,-9.44752,-1.149217,8.0,49.83503,24.058212,341.0,NaN,8.28,2.0,35.3,17 / 26,449538,2020-03-20 15:50:33:254
-0.919373,9.619903,2.561796,8.0,49.83503,24.058212,341.0,NaN,8.28,2.0,35.3,15 / 25,450038,2020-03-20 15:50:33:754
3.08852,16.304514,-5.434838,8.0,49.83503,24.058212,341.0,NaN,8.28,2.0,35.3,15 / 25,450539,2020-03-20 15:50:34:255
12.885593,-13.335704,1.335965,8.0,49.83503,24.058212,341.0,NaN,8.28,2.0,35.3,15 / 26,451039,2020-03-20 15:50:34:755
0.574608,12.172121,3.572149,8.0,49.83503,24.058212,341.0,NaN,8.28,2.0,35.3,15 / 26,451538,2020-03-20 15:50:35:254
11.530476,29.237991,12.531252,8.0,49.83503,24.058212,341.0,NaN,8.28,2.0,35.3,15 / 26,452038,2020-03-20 15:50:35:754
4.43885,-0.727837,-1.446098,8.0,49.83503,24.058212,341.0,NaN,8.28,2.0,35.3,15 / 26,452539,2020-03-20 15:50:36:255
-2.336741,11.343728,-10.984597,8.0,49.83503,24.058212,341.0,NaN,8.28,2.0,35.3,14 / 25,453038,2020-03-20 15:50:36:754
14.470555,-1.403002,2.643199,8.0,49.83503,24.058212,341.0,NaN,8.28,2.0,35.3,14 / 25,453539,2020-03-20 15:50:37:255
19.115307,31.723173,0.636858,8.0,49.83503,24.058212,341.0,NaN,8.28,2.0,35.3,16 / 25,454039,2020-03-20 15:50:37:755
-4.381389,13.996503,7.149087,8.0,49.83503,24.058212,341.0,NaN,8.28,2.0,35.3,16 / 25,454538,2020-03-20 15:50:38:254
1.877054,12.569559,-9.667787,8.0,49.83503,24.058212,341.0,NaN,8.28,2.0,35.3,15 / 24,455038,2020-03-20 15:50:38:754
15.500062,12.804191,-2.011129,8.0,49.83503,24.058212,341.0,NaN,8.28,2.0,35.3,15 / 24,455538,2020-03-20 15:50:39:254
-4.841076,8.250419,1.489194,8.0,49.83503,24.058212,341.0,NaN,8.28,2.0,35.3,17 / 24,456038,2020-03-20 15:50:39:754
2.284068,-15.586253,-14.393941,8.0,49.83503,24.058212,341.0,NaN,8.28,2.0,35.3,17 / 24,456538,2020-03-20 15:50:40:254
7.536947,12.378023,9.011775,8.0,49.83503,24.058212,341.0,NaN,8.28,2.0,35.3,17 / 22,457038,2020-03-20 15:50:40:754
22.10327,37.837963,9.150639,8.0,49.83503,24.058212,341.0,NaN,8.28,2.0,35.3,17 / 22,457538,2020-03-20 15:50:41:254
1.091756,3.213019,-9.126697,8.0,49.83503,24.058212,341.0,NaN,8.28,2.0,35.3,18 / 23,458039,2020-03-20 15:50:41:755
-0.493206,5.066131,-4.43885,8.0,49.83503,24.058212,341.0,NaN,8.28,2.0,35.3,18 / 23,458538,2020-03-20 15:50:42:254
15.696386,24.80393,-7.000645,8.0,49.83503,24.058212,341.0,NaN,8.28,2.0,35.3,18 / 21,459038,2020-03-20 15:50:42:754
7.795521,1.61848,-4.304775,8.0,49.83503,24.058212,341.0,NaN,8.28,2.0,35.3,18 / 21,459538,2020-03-20 15:50:43:254
-7.982268,6.019023,2.695871,8.0,49.83503,24.058212,341.0,NaN,8.28,2.0,35.3,17 / 21,460039,2020-03-20 15:50:43:755
12.583924,-4.941632,2.303222,8.0,49.83503,24.058212,341.0,NaN,8.28,2.0,35.3,17 / 21,460538,2020-03-20 15:50:44:254
-2.504335,14.417883,1.326388,8.0,49.83503,24.058212,341.0,NaN,8.28,2.0,35.3,19 / 22,461038,2020-03-20 15:50:44:754
1.393425,27.844566,8.595184,8.0,49.83503,24.058212,341.0,NaN,8.28,2.0,35.3,19 / 22,461538,2020-03-20 15:50:45:254
4.965575,-5.990292,-1.177947,8.0,49.83503,24.058212,341.0,NaN,8.28,2.0,35.3,19 / 22,462039,2020-03-20 15:50:45:755
-3.040636,7.867347,2.791639,8.0,49.83503,24.058212,341.0,NaN,8.28,2.0,35.3,19 / 22,462539,2020-03-20 15:50:46:255
-5.085284,8.020576,0.531513,8.0,49.83503,24.058212,341.0,NaN,8.28,2.0,35.3,18 / 22,463038,2020-03-20 15:50:46:754
6.727707,-12.74673,-0.818817,8.0,49.83503,24.058212,341.0,NaN,8.28,2.0,35.3,18 / 22,463539,2020-03-20 15:50:47:255
-1.158794,11.300632,0.225055,8.0,49.83503,24.058212,341.0,NaN,8.28,2.0,35.3,18 / 22,464039,2020-03-20 15:50:47:755
3.696648,22.333113,-0.229843,8.0,49.83503,24.058212,341.0,NaN,8.28,2.0,35.3,18 / 22,464538,2020-03-20 15:50:48:254
4.352659,-9.366117,-4.572925,8.0,49.83503,24.058212,341.0,NaN,8.28,2.0,35.3,18 / 21,465038,2020-03-20 15:50:48:754
-3.768473,6.497864,2.552219,8.0,49.83503,24.058212,341.0,NaN,8.28,2.0,35.3,18 / 21,465539,2020-03-20 15:50:49:255
11.501745,16.567875,-5.420472,8.0,49.83503,24.058212,341.0,NaN,8.28,2.0,35.3,18 / 22,466039,2020-03-20 15:50:49:755
15.423448,15.35641,-1.685518,8.0,49.83503,24.058212,341.0,NaN,8.28,2.0,35.3,18 / 22,466538,2020-03-20 15:50:50:254
-0.335188,10.769119,-4.860229,8.0,49.83503,24.058212,341.0,NaN,8.28,2.0,35.3,19 / 22,467038,2020-03-20 15:50:50:754
8.801085,-8.724471,0.699107,8.0,49.83503,24.058212,341.0,NaN,8.28,2.0,35.3,19 / 22,467539,2020-03-20 15:50:51:255
4.539407,14.341269,-0.861913,8.0,49.83503,24.058212,341.0,NaN,8.28,2.0,35.3,18 / 22,468038,2020-03-20 15:50:51:754
-4.036624,6.517017,0.062249,8.0,49.83503,24.058212,341.0,NaN,8.28,2.0,35.3,18 / 22,468538,2020-03-20 15:50:52:254
8.183381,-0.823605,-8.044517,8.0,49.83503,24.058212,341.0,NaN,8.28,2.0,35.3,20 / 23,469038,2020-03-20 15:50:52:754
6.50744,22.098482,27.988218,8.0,49.83503,24.058212,341.0,NaN,8.28,2.0,35.3,20 / 23,469539,2020-03-20 15:50:53:255
-0.148441,11.563994,8.628703,8.0,49.83503,24.058212,341.0,NaN,8.28,2.0,35.3,19 / 23,470038,2020-03-20 15:50:53:754
8.916007,-10.342952,-8.111555,8.0,49.83503,24.058212,341.0,NaN,8.28,2.0,35.3,19 / 23,470538,2020-03-20 15:50:54:254
4.194642,7.752425,-4.237737,8.0,49.83503,24.058212,341.0,NaN,8.28,2.0,35.3,20 / 23,471038,2020-03-20 15:50:54:754
21.08334,33.274616,-1.766921,8.0,49.83503,24.058212,341.0,NaN,8.28,2.0,35.3,20 / 23,471539,2020-03-20 15:50:55:255
5.746084,4.242526,-6.713341,8.0,49.83503,24.058212,341.0,NaN,8.28,2.0,35.3,20 / 23,472038,2020-03-20 15:50:55:754
-5.822698,5.679047,4.726155,8.0,49.83503,24.058212,341.0,NaN,8.28,2.0,35.3,20 / 23,472538,2020-03-20 15:50:56:254
17.477673,28.242002,8.197747,8.0,49.83503,24.058212,341.0,NaN,8.28,2.0,35.3,21 / 24,473038,2020-03-20 15:50:56:754
1.632846,-1.278504,-3.600879,8.0,49.83503,24.058212,341.0,NaN,8.28,2.0,35.3,21 / 24,473539,2020-03-20 15:50:57:255
-4.544194,5.200207,5.204995,8.0,49.83503,24.058212,341.0,NaN,8.28,2.0,35.3,21 / 25,474039,2020-03-20 15:50:57:755
4.86023,-16.893488,-4.663905,8.0,49.83503,24.058212,341.0,NaN,8.28,2.0,35.3,21 / 25,474538,2020-03-20 15:50:58:254
22.73055,24.909275,15.217546,8.0,49.83503,24.058212,341.0,NaN,8.28,2.0,35.3,21 / 26,475038,2020-03-20 15:50:58:754
12.785037,25.680208,2.839523,8.0,49.83503,24.058212,341.0,NaN,8.28,2.0,35.3,21 / 26,475539,2020-03-20 15:50:59:255
3.734955,-5.032612,-3.902549,8.0,49.83503,24.058212,341.0,NaN,8.28,2.0,35.3,21 / 26,476039,2020-03-20 15:50:59:755
-1.666364,10.582372,6.56969,8.0,49.83503,24.058212,341.0,NaN,8.28,2.0,35.3,21 / 26,476538,2020-03-20 15:51:00:254
8.767567,7.402872,-0.881066,8.0,49.83503,24.058212,341.0,NaN,8.28,2.0,35.3,21 / 26,477038,2020-03-20 15:51:00:754
4.52983,-8.825027,-4.01747,8.0,49.83503,24.058212,341.0,NaN,8.28,2.0,35.3,21 / 26,477539,2020-03-20 15:51:01:255
-1.039083,7.556101,3.040636,8.0,49.83503,24.058212,341.0,NaN,8.28,2.0,35.3,21 / 26,478038,2020-03-20 15:51:01:754
8.030153,11.358093,-2.073379,8.0,49.83503,24.058212,341.0,NaN,8.28,2.0,35.3,21 / 26,478538,2020-03-20 15:51:02:254
14.101848,9.892841,-2.059013,8.0,49.83503,24.058212,341.0,NaN,8.28,2.0,35.3,22 / 26,479038,2020-03-20 15:51:02:754
-6.38773,5.827487,3.734955,8.0,49.83503,24.058212,341.0,NaN,8.28,2.0,35.3,22 / 26,479539,2020-03-20 15:51:03:255
4.357447,-11.880029,-5.530606,8.0,49.835793,24.059263,344.0,NaN,10.332,3.0,114.6,22 / 26,480038,2020-03-20 15:51:03:754
4.553772,11.501745,6.833052,8.0,49.835793,24.059263,344.0,NaN,10.332,3.0,114.6,22 / 26,480539,2020-03-20 15:51:04:255
19.85272,22.290018,4.711789,8.0,49.835793,24.059263,344.0,NaN,10.332,3.0,114.6,22 / 26,481038,2020-03-20 15:51:04:754
9.581595,4.381389,-1.283292,8.0,49.835793,24.059263,344.0,NaN,10.332,3.0,114.6,22 / 26,481538,2020-03-20 15:51:05:254
-6.311115,16.85518,-5.291186,8.0,49.835793,24.059263,344.0,NaN,10.332,3.0,114.6,22 / 25,482039,2020-03-20 15:51:05:755
6.560113,24.463955,1.029507,8.0,49.835793,24.059263,344.0,NaN,10.332,3.0,114.6,22 / 25,482538,2020-03-20 15:51:06:254
1.493982,-7.637503,-1.666364,8.0,49.835793,24.059263,344.0,NaN,10.332,3.0,114.6,21 / 26,483039,2020-03-20 15:51:06:755
-0.646434,10.754754,1.810017,8.0,49.835793,24.059263,344.0,NaN,10.332,3.0,114.6,21 / 26,483539,2020-03-20 15:51:07:255
14.911088,15.370775,1.010353,8.0,49.835793,24.059263,344.0,NaN,10.332,3.0,114.6,22 / 26,484038,2020-03-20 15:51:07:754
11.128249,7.704541,-9.773131,8.0,49.835793,24.059263,344.0,NaN,10.332,3.0,114.6,22 / 26,484539,2020-03-20 15:51:08:255
-3.184288,9.11712,-2.485181,8.0,49.835793,24.059263,344.0,NaN,10.332,3.0,114.6,22 / 26,485038,2020-03-20 15:51:08:754
5.33907,-10.386047,-14.030022,8.0,49.835793,24.059263,344.0,NaN,10.332,3.0,114.6,22 / 26,485538,2020-03-20 15:51:09:254
12.98615,32.89633,14.207192,8.0,49.835793,24.059263,344.0,NaN,10.332,3.0,114.6,21 / 27,486039,2020-03-20 15:51:09:755
-4.592078,5.43005,5.061342,8.0,49.835793,24.059263,344.0,NaN,10.332,3.0,114.6,21 / 27,486539,2020-03-20 15:51:10:255
9.782708,14.403518,-1.441309,8.0,49.835793,24.059263,344.0,NaN,10.332,3.0,114.6,20 / 26,487038,2020-03-20 15:51:10:754
12.943054,11.540052,1.987187,8.0,49.835793,24.059263,344.0,NaN,10.332,3.0,114.6,20 / 26,487538,2020-03-20 15:51:11:254
-4.778826,6.277597,-1.671153,8.0,49.835793,24.059263,344.0,NaN,10.332,3.0,114.6,23 / 26,488039,2020-03-20 15:51:11:755
4.395755,-9.744401,-4.577713,8.0,49.835793,24.059263,344.0,NaN,10.332,3.0,114.6,23 / 26,488539,2020-03-20 15:51:12:255
7.000646,17.425,15.26543,8.0,49.835793,24.059263,344.0,NaN,10.332,3.0,114.6,23 / 27,489038,2020-03-20 15:51:12:754
17.30529,24.866179,13.431472,8.0,49.835793,24.059263,344.0,NaN,10.332,3.0,114.6,23 / 27,489538,2020-03-20 15:51:13:254
4.496311,-0.45011,-0.579397,8.0,49.835793,24.059263,344.0,NaN,10.332,3.0,114.6,23 / 27,490039,2020-03-20 15:51:13:755
-4.141969,5.137957,4.113238,8.0,49.835793,24.059263,344.0,NaN,10.332,3.0,114.6,23 / 27,490538,2020-03-20 15:51:14:254
8.78672,28.687325,9.275137,8.0,49.835793,24.059263,344.0,NaN,10.332,3.0,114.6,23 / 26,491038,2020-03-20 15:51:14:754
3.136404,0.794875,-1.537077,8.0,49.835793,24.059263,344.0,NaN,10.332,3.0,114.6,23 / 26,491539,2020-03-20 15:51:15:255
-3.586514,5.588067,5.291186,8.0,49.835793,24.059263,344.0,NaN,10.332,3.0,114.6,23 / 27,492039,2020-03-20 15:51:15:755
14.911088,1.201889,-4.381389,8.0,49.835793,24.059263,344.0,NaN,10.332,3.0,114.6,23 / 27,492538,2020-03-20 15:51:16:254
18.219875,21.509508,5.094861,8.0,49.835793,24.059263,344.0,NaN,10.332,3.0,114.6,23 / 27,493038,2020-03-20 15:51:16:754
-3.323152,10.424355,1.766921,8.0,49.835793,24.059263,344.0,NaN,10.332,3.0,114.6,23 / 27,493539,2020-03-20 15:51:17:255
4.027047,-12.368446,-5.070919,8.0,49.835793,24.059263,344.0,NaN,10.332,3.0,114.6,22 / 27,494038,2020-03-20 15:51:17:754
4.07972,8.480263,3.907337,8.0,49.835793,24.059263,344.0,NaN,10.332,3.0,114.6,22 / 27,494538,2020-03-20 15:51:18:254
22.519861,28.093563,-3.294421,8.0,49.835793,24.059263,344.0,NaN,10.332,3.0,114.6,22 / 27,495039,2020-03-20 15:51:18:755
5.904102,-12.622231,-0.670376,8.0,49.835793,24.059263,344.0,NaN,10.332,3.0,114.6,22 / 27,495539,2020-03-20 15:51:19:255
3.902549,16.218323,2.183512,8.0,49.835793,24.059263,344.0,NaN,10.332,3.0,114.6,21 / 26,496038,2020-03-20 15:51:19:754
23.779213,33.451786,2.164359,8.0,49.835793,24.059263,344.0,NaN,10.332,3.0,114.6,21 / 26,496539,2020-03-20 15:51:20:255
4.012682,0.21069,-2.585738,8.0,49.835793,24.059263,344.0,NaN,10.332,3.0,114.6,22 / 27,497038,2020-03-20 15:51:20:754
0.205901,8.202535,-3.624821,8.0,49.835793,24.059263,344.0,NaN,10.332,3.0,114.6,22 / 27,497538,2020-03-20 15:51:21:254
-3.835511,-10.697293,-0.215478,8.0,49.835793,24.059263,344.0,NaN,10.332,3.0,114.6,22 / 27,498039,2020-03-20 15:51:21:755
10.113108,27.983427,2.082955,8.0,49.835793,24.059263,344.0,NaN,10.332,3.0,114.6,22 / 27,498539,2020-03-20 15:51:22:255
0.301669,20.556616,-2.935291,8.0,49.835793,24.059263,344.0,NaN,10.332,3.0,114.6,21 / 25,499038,2020-03-20 15:51:22:754
12.172121,2.585738,-7.445967,8.0,49.835793,24.059263,344.0,NaN,10.332,3.0,114.6,21 / 25,499539,2020-03-20 15:51:23:255
20.135237,30.904356,-2.743755,8.0,49.835793,24.059263,344.0,NaN,10.332,3.0,114.6,20 / 24,500038,2020-03-20 15:51:23:754
0.23942,15.547946,3.160346,8.0,49.835793,24.059263,344.0,NaN,10.332,3.0,114.6,20 / 24,500539,2020-03-20 15:51:24:255
4.831499,-5.856217,-6.804321,8.0,49.835793,24.059263,344.0,NaN,10.332,3.0,114.6,20 / 27,501038,2020-03-20 15:51:24:754
0.435745,8.044518,0.244209,8.0,49.835793,24.059263,344.0,NaN,10.332,3.0,114.6,20 / 27,501539,2020-03-20 15:51:25:255
3.787627,11.03727,-1.130063,8.0,49.835793,24.059263,344.0,NaN,10.332,3.0,114.6,20 / 26,502039,2020-03-20 15:51:25:755
14.283808,12.248735,-0.416591,8.0,49.835793,24.059263,344.0,NaN,10.332,3.0,114.6,20 / 26,502538,2020-03-20 15:51:26:254
-5.15711,4.534618,-2.935291,8.0,49.835793,24.059263,344.0,NaN,10.332,3.0,114.6,21 / 26,503039,2020-03-20 15:51:26:755
2.446874,-11.03727,-1.862689,8.0,49.835793,24.059263,344.0,NaN,10.332,3.0,114.6,21 / 26,503538,2020-03-20 15:51:27:254
5.353435,1.407791,-6.924031,8.0,49.835793,24.059263,344.0,NaN,10.332,3.0,114.6,20 / 26,504038,2020-03-20 15:51:27:754
-5.051765,7.603985,1.292869,8.0,49.835793,24.059263,344.0,NaN,10.332,3.0,114.6,20 / 26,504538,2020-03-20 15:51:28:254
5.889736,-5.171476,3.979163,8.0,49.835793,24.059263,344.0,NaN,10.332,3.0,114.6,21 / 26,505039,2020-03-20 15:51:28:755
10.13705,17.808075,13.790602,8.0,49.835793,24.059263,344.0,NaN,10.332,3.0,114.6,21 / 26,505538,2020-03-20 15:51:29:254
-1.302446,8.063671,10.223241,8.0,49.835793,24.059263,344.0,NaN,10.332,3.0,114.6,21 / 26,506038,2020-03-20 15:51:29:754
4.309563,5.899313,7.967903,8.0,49.835793,24.059263,344.0,NaN,10.332,3.0,114.6,21 / 26,506539,2020-03-20 15:51:30:255
-12.861651,7.943961,-2.892196,8.0,49.835793,24.059263,344.0,NaN,10.332,3.0,114.6,20 / 26,507038,2020-03-20 15:51:30:754
-3.864241,19.081787,0.033519,8.0,49.835793,24.059263,344.0,NaN,10.332,3.0,114.6,20 / 26,507539,2020-03-20 15:51:31:255
-10.424355,13.144167,-13.196839,8.0,49.835793,24.059263,344.0,NaN,10.332,3.0,114.6,20 / 26,508038,2020-03-20 15:51:31:754
-9.548077,20.652384,-9.097966,8.0,49.835793,24.059263,344.0,NaN,10.332,3.0,114.6,20 / 26,508538,2020-03-20 15:51:32:254
-10.271125,10.821792,-2.351106,8.0,49.835793,24.059263,344.0,NaN,10.332,3.0,114.6,19 / 26,509038,2020-03-20 15:51:32:754
-0.225055,9.907207,-2.944868,8.0,49.835793,24.059263,344.0,NaN,10.332,3.0,114.6,19 / 26,509539,2020-03-20 15:51:33:255
-14.709975,-10.500969,7.675811,8.0,49.835793,24.059263,344.0,NaN,10.332,3.0,114.6,21 / 26,510038,2020-03-20 15:51:33:754
-9.476251,22.203827,-3.280056,8.0,49.835793,24.059263,344.0,NaN,10.332,3.0,114.6,21 / 26,510538,2020-03-20 15:51:34:254
-2.413355,16.955736,2.13084,8.0,49.835793,24.059263,344.0,NaN,10.332,3.0,114.6,22 / 26,511039,2020-03-20 15:51:34:755
-0.756568,-4.19943,1.580173,8.0,49.835793,24.059263,344.0,NaN,10.332,3.0,114.6,22 / 26,511538,2020-03-20 15:51:35:254
1.273715,8.111555,2.681506,8.0,49.835793,24.059263,344.0,NaN,10.332,3.0,114.6,21 / 26,512038,2020-03-20 15:51:35:754
4.88896,9.619903,0.603339,8.0,49.835793,24.059263,344.0,NaN,10.332,3.0,114.6,21 / 26,512539,2020-03-20 15:51:36:255
-10.922348,-8.485051,2.667141,8.0,49.835793,24.059263,344.0,NaN,10.332,3.0,114.6,22 / 25,513038,2020-03-20 15:51:36:754
-0.162806,10.884041,1.149217,8.0,49.835793,24.059263,344.0,NaN,10.332,3.0,114.6,22 / 25,513538,2020-03-20 15:51:37:254
-27.207708,20.60929,6.368577,8.0,49.835793,24.059263,344.0,NaN,10.332,3.0,114.6,20 / 25,514039,2020-03-20 15:51:37:755
-6.378153,7.173029,-17.673998,8.0,49.835793,24.059263,344.0,NaN,10.332,3.0,114.6,20 / 25,514539,2020-03-20 15:51:38:255
10.357317,6.655881,-0.890643,8.0,49.835793,24.059263,344.0,NaN,10.332,3.0,114.6,22 / 25,515038,2020-03-20 15:51:38:754
2.762909,-5.889736,-3.74932,8.0,49.835793,24.059263,344.0,NaN,10.332,3.0,114.6,22 / 25,515538,2020-03-20 15:51:39:254
-0.134075,18.210299,-3.399766,8.0,49.835793,24.059263,344.0,NaN,10.332,3.0,114.6,22 / 26,516038,2020-03-20 15:51:39:754
